subj_id,sona_experiment_code,experimenter,cue_contrast,block,trial,mask_type,cue_type,cue_validity,cue_dir,target_loc,rt,response_type,is_correct
P212,SPC,JR,word_arrow,0,0,mask,visual_arrow,valid,left,left,1603.91404963,left,1
P212,SPC,JR,word_arrow,0,1,mask,visual_word,invalid,left,down,1205.11022268,down,1
P212,SPC,JR,word_arrow,0,2,mask,visual_word,valid,right,right,839.787076693,right,1
P212,SPC,JR,word_arrow,0,3,mask,visual_word,valid,right,right,833.070966997,right,1
P212,SPC,JR,word_arrow,0,4,mask,visual_arrow,valid,right,right,743.674558995,right,1
P212,SPC,JR,word_arrow,0,5,mask,visual_arrow,valid,right,right,657.976780785,right,1
P212,SPC,JR,word_arrow,0,6,mask,visual_arrow,valid,right,right,643.250440888,right,1
P212,SPC,JR,word_arrow,0,7,mask,visual_arrow,invalid,right,down,659.534334322,down,1
P212,SPC,JR,word_arrow,0,8,mask,visual_word,valid,left,left,595.147769141,left,1
P212,SPC,JR,word_arrow,0,9,mask,visual_word,invalid,right,up,1663.07580034,down,0
P212,SPC,JR,word_arrow,0,10,mask,visual_arrow,valid,right,right,648.358743114,right,1
P212,SPC,JR,word_arrow,0,11,mask,visual_word,valid,left,left,542.649313516,left,1
P212,SPC,JR,word_arrow,0,12,mask,visual_word,invalid,left,down,528.93445536,down,1
P212,SPC,JR,word_arrow,0,13,mask,visual_word,invalid,right,down,500.534868916,down,1
P212,SPC,JR,word_arrow,0,14,mask,visual_word,valid,left,left,547.170572274,left,1
P212,SPC,JR,word_arrow,1,15,mask,visual_arrow,valid,right,right,508.674735029,right,1
P212,SPC,JR,word_arrow,1,16,mask,visual_word,neutral,neutral,left,832.97077904,left,1
P212,SPC,JR,word_arrow,1,17,mask,visual_arrow,neutral,neutral,right,659.250095196,right,1
P212,SPC,JR,word_arrow,1,18,mask,visual_arrow,valid,left,left,514.541328303,left,1
P212,SPC,JR,word_arrow,1,19,mask,visual_word,valid,right,right,478.808180196,right,1
P212,SPC,JR,word_arrow,1,20,mask,visual_word,valid,right,right,463.776795485,right,1
P212,SPC,JR,word_arrow,1,21,mask,visual_arrow,invalid,left,right,553.396305535,right,1
P212,SPC,JR,word_arrow,1,22,mask,visual_word,valid,right,right,598.703319032,right,1
P212,SPC,JR,word_arrow,1,23,mask,visual_word,valid,left,left,464.965606458,left,1
P212,SPC,JR,word_arrow,1,24,mask,visual_arrow,valid,left,left,520.265801984,left,1
P212,SPC,JR,word_arrow,1,25,mask,visual_arrow,invalid,left,right,2116.71953474,timeout,0
P212,SPC,JR,word_arrow,1,26,mask,visual_word,invalid,left,right,544.124284235,right,1
P212,SPC,JR,word_arrow,1,27,mask,visual_word,valid,left,left,469.075230532,left,1
P212,SPC,JR,word_arrow,1,28,mask,visual_arrow,invalid,right,down,547.02909285,down,1
P212,SPC,JR,word_arrow,1,29,mask,visual_arrow,neutral,neutral,left,528.655337635,left,1
P212,SPC,JR,word_arrow,1,30,mask,visual_arrow,valid,right,right,453.956781595,right,1
P212,SPC,JR,word_arrow,1,31,mask,visual_word,invalid,left,right,447.213144158,right,1
P212,SPC,JR,word_arrow,1,32,mask,visual_word,valid,right,right,527.180366975,right,1
P212,SPC,JR,word_arrow,1,33,mask,visual_arrow,valid,left,left,395.462416694,left,1
P212,SPC,JR,word_arrow,1,34,mask,visual_word,invalid,right,left,447.085748718,left,1
P212,SPC,JR,word_arrow,1,35,mask,visual_word,invalid,left,right,397.406958044,right,1
P212,SPC,JR,word_arrow,1,36,mask,visual_word,valid,left,left,413.318587875,left,1
P212,SPC,JR,word_arrow,1,37,mask,visual_arrow,valid,right,right,477.940738725,right,1
P212,SPC,JR,word_arrow,1,38,mask,visual_arrow,valid,right,right,363.240966282,right,1
P212,SPC,JR,word_arrow,1,39,mask,visual_arrow,neutral,neutral,left,488.194473379,left,1
P212,SPC,JR,word_arrow,1,40,mask,visual_arrow,valid,right,right,461.148543749,right,1
P212,SPC,JR,word_arrow,1,41,mask,visual_arrow,valid,left,left,428.755205474,left,1
P212,SPC,JR,word_arrow,1,42,mask,visual_arrow,valid,right,right,334.387173411,right,1
P212,SPC,JR,word_arrow,1,43,mask,visual_word,valid,left,left,355.014035886,left,1
P212,SPC,JR,word_arrow,1,44,mask,visual_arrow,valid,right,right,423.972433957,right,1
P212,SPC,JR,word_arrow,1,45,mask,visual_word,valid,left,left,346.934666624,left,1
P212,SPC,JR,word_arrow,1,46,mask,visual_word,invalid,left,right,368.546123209,right,1
P212,SPC,JR,word_arrow,1,47,mask,visual_arrow,valid,left,left,324.160006188,left,1
P212,SPC,JR,word_arrow,1,48,mask,visual_arrow,valid,left,left,343.133928487,left,1
P212,SPC,JR,word_arrow,1,49,mask,visual_word,invalid,right,left,339.083520812,left,1
P212,SPC,JR,word_arrow,1,50,mask,visual_word,valid,left,left,384.376450384,left,1
P212,SPC,JR,word_arrow,1,51,mask,visual_word,neutral,neutral,left,451.998156263,left,1
P212,SPC,JR,word_arrow,1,52,mask,visual_word,valid,left,left,331.295752781,left,1
P212,SPC,JR,word_arrow,1,53,mask,visual_word,valid,left,left,344.566007203,left,1
P212,SPC,JR,word_arrow,1,54,mask,visual_arrow,valid,left,left,341.206031793,left,1
P212,SPC,JR,word_arrow,1,55,mask,visual_word,valid,left,left,379.167960316,left,1
P212,SPC,JR,word_arrow,1,56,mask,visual_word,valid,left,left,332.790888962,left,1
P212,SPC,JR,word_arrow,1,57,mask,visual_word,neutral,neutral,right,457.065807132,right,1
P212,SPC,JR,word_arrow,1,58,mask,visual_arrow,valid,left,left,382.704945048,left,1
P212,SPC,JR,word_arrow,1,59,mask,visual_word,valid,left,left,344.704285671,left,1
P212,SPC,JR,word_arrow,1,60,mask,visual_arrow,valid,right,right,387.943203386,right,1
P212,SPC,JR,word_arrow,1,61,mask,visual_word,invalid,left,down,492.88153823,down,1
P212,SPC,JR,word_arrow,1,62,mask,visual_arrow,valid,right,right,434.498884482,right,1
P212,SPC,JR,word_arrow,1,63,mask,visual_word,valid,left,left,418.116723653,left,1
P212,SPC,JR,word_arrow,1,64,mask,visual_arrow,invalid,right,left,385.736188968,left,1
P212,SPC,JR,word_arrow,1,65,mask,visual_arrow,valid,left,left,378.364856821,left,1
P212,SPC,JR,word_arrow,1,66,mask,visual_arrow,valid,right,right,371.982920042,right,1
P212,SPC,JR,word_arrow,1,67,mask,visual_word,neutral,neutral,left,384.273701813,left,1
P212,SPC,JR,word_arrow,1,68,mask,visual_word,valid,right,right,426.563235233,right,1
P212,SPC,JR,word_arrow,1,69,mask,visual_arrow,valid,right,right,380.521937273,right,1
P212,SPC,JR,word_arrow,1,70,mask,visual_arrow,neutral,neutral,right,405.48024571,right,1
P212,SPC,JR,word_arrow,1,71,mask,visual_word,valid,left,left,359.420382592,left,1
P212,SPC,JR,word_arrow,1,72,mask,visual_word,valid,right,right,353.052209713,right,1
P212,SPC,JR,word_arrow,1,73,mask,visual_word,valid,right,right,389.685768518,right,1
P212,SPC,JR,word_arrow,1,74,mask,visual_arrow,invalid,left,down,512.295903172,down,1
P212,SPC,JR,word_arrow,1,75,mask,visual_arrow,invalid,right,down,511.581144179,down,1
P212,SPC,JR,word_arrow,1,76,mask,visual_arrow,invalid,right,left,387.521966069,left,1
P212,SPC,JR,word_arrow,1,77,mask,visual_word,invalid,right,down,518.500190461,down,1
P212,SPC,JR,word_arrow,1,78,mask,visual_word,invalid,left,right,451.428397617,right,1
P212,SPC,JR,word_arrow,1,79,mask,visual_arrow,valid,right,right,418.407684658,right,1
P212,SPC,JR,word_arrow,1,80,mask,visual_arrow,valid,right,right,396.362507367,right,1
P212,SPC,JR,word_arrow,1,81,mask,visual_word,invalid,left,up,671.293768159,up,1
P212,SPC,JR,word_arrow,1,82,mask,visual_arrow,invalid,left,up,1285.9423263,up,1
P212,SPC,JR,word_arrow,1,83,mask,visual_word,valid,right,right,499.518585973,right,1
P212,SPC,JR,word_arrow,1,84,mask,visual_arrow,valid,left,left,456.816457678,left,1
P212,SPC,JR,word_arrow,1,85,mask,visual_word,valid,right,right,423.427962349,right,1
P212,SPC,JR,word_arrow,1,86,mask,visual_arrow,invalid,left,up,1281.70466656,right,0
P212,SPC,JR,word_arrow,1,87,mask,visual_word,invalid,right,up,537.338715105,up,1
P212,SPC,JR,word_arrow,1,88,mask,visual_arrow,valid,left,left,483.954893018,left,1
P212,SPC,JR,word_arrow,1,89,mask,visual_word,valid,left,left,353.55570988,left,1
P212,SPC,JR,word_arrow,1,90,mask,visual_word,valid,left,left,1383.52117228,left,1
P212,SPC,JR,word_arrow,1,91,mask,visual_word,valid,right,right,449.464330915,right,1
P212,SPC,JR,word_arrow,1,92,mask,visual_word,valid,right,right,410.752433527,right,1
P212,SPC,JR,word_arrow,1,93,mask,visual_arrow,invalid,left,right,387.032229803,right,1
P212,SPC,JR,word_arrow,1,94,mask,visual_arrow,invalid,left,right,475.63961806,right,1
P212,SPC,JR,word_arrow,1,95,mask,visual_word,valid,right,right,403.266509413,right,1
P212,SPC,JR,word_arrow,1,96,mask,visual_word,valid,left,left,549.560357584,left,1
P212,SPC,JR,word_arrow,1,97,mask,visual_word,valid,right,right,505.170079356,right,1
P212,SPC,JR,word_arrow,1,98,mask,visual_word,valid,left,left,382.797770901,left,1
P212,SPC,JR,word_arrow,1,99,mask,visual_arrow,valid,left,left,392.409726861,left,1
P212,SPC,JR,word_arrow,1,100,mask,visual_arrow,valid,left,left,355.702227505,left,1
P212,SPC,JR,word_arrow,1,101,mask,visual_word,invalid,left,down,534.3292373,down,1
P212,SPC,JR,word_arrow,1,102,mask,visual_word,valid,left,left,452.300640522,left,1
P212,SPC,JR,word_arrow,1,103,mask,visual_arrow,valid,right,right,460.242691566,right,1
P212,SPC,JR,word_arrow,1,104,mask,visual_word,valid,right,right,411.853540048,right,1
P212,SPC,JR,word_arrow,1,105,mask,visual_arrow,neutral,neutral,left,317.473664647,left,1
P212,SPC,JR,word_arrow,1,106,mask,visual_arrow,valid,right,right,353.782332968,right,1
P212,SPC,JR,word_arrow,1,107,mask,visual_arrow,invalid,left,right,463.385006355,right,1
P212,SPC,JR,word_arrow,1,108,mask,visual_word,valid,left,left,400.349217234,left,1
P212,SPC,JR,word_arrow,1,109,mask,visual_word,valid,right,right,394.315217389,right,1
P212,SPC,JR,word_arrow,1,110,mask,visual_word,valid,right,right,413.257770997,right,1
P212,SPC,JR,word_arrow,1,111,mask,visual_word,valid,left,left,543.963599484,left,1
P212,SPC,JR,word_arrow,1,112,mask,visual_word,valid,left,left,396.50782774,left,1
P212,SPC,JR,word_arrow,1,113,mask,visual_arrow,valid,left,left,383.13162385,left,1
P212,SPC,JR,word_arrow,1,114,mask,visual_arrow,valid,left,left,474.74080784,left,1
P212,SPC,JR,word_arrow,1,115,mask,visual_word,invalid,left,down,475.705876481,down,1
P212,SPC,JR,word_arrow,1,116,mask,visual_word,valid,left,left,394.656752411,left,1
P212,SPC,JR,word_arrow,2,117,mask,visual_word,valid,right,right,383.87839176,right,1
P212,SPC,JR,word_arrow,2,118,mask,visual_word,valid,left,left,385.513406945,left,1
P212,SPC,JR,word_arrow,2,119,mask,visual_arrow,valid,left,left,325.779977138,left,1
P212,SPC,JR,word_arrow,2,120,mask,visual_arrow,valid,left,left,315.075877123,left,1
P212,SPC,JR,word_arrow,2,121,mask,visual_arrow,valid,left,left,354.375778174,left,1
P212,SPC,JR,word_arrow,2,122,mask,visual_word,valid,left,left,334.996943187,left,1
P212,SPC,JR,word_arrow,2,123,mask,visual_word,invalid,left,right,778.00923778,right,1
P212,SPC,JR,word_arrow,2,124,mask,visual_arrow,valid,left,left,278.898765391,left,1
P212,SPC,JR,word_arrow,2,125,mask,visual_word,valid,left,left,357.53249703,left,1
P212,SPC,JR,word_arrow,2,126,mask,visual_word,neutral,neutral,right,313.817926915,right,1
P212,SPC,JR,word_arrow,2,127,mask,visual_arrow,valid,right,right,401.444562187,right,1
P212,SPC,JR,word_arrow,2,128,mask,visual_arrow,valid,left,left,347.734249255,left,1
P212,SPC,JR,word_arrow,2,129,mask,visual_word,valid,right,right,318.673358648,right,1
P212,SPC,JR,word_arrow,2,130,mask,visual_word,valid,left,left,356.308476243,left,1
P212,SPC,JR,word_arrow,2,131,mask,visual_arrow,invalid,left,right,402.309763012,right,1
P212,SPC,JR,word_arrow,2,132,mask,visual_arrow,valid,right,right,363.885305647,right,1
P212,SPC,JR,word_arrow,2,133,mask,visual_arrow,valid,left,left,350.836552912,left,1
P212,SPC,JR,word_arrow,2,134,mask,visual_word,invalid,left,right,346.790946613,right,1
P212,SPC,JR,word_arrow,2,135,mask,visual_word,valid,right,right,382.749757555,right,1
P212,SPC,JR,word_arrow,2,136,mask,visual_word,invalid,right,up,568.389919761,right,0
P212,SPC,JR,word_arrow,2,137,mask,visual_arrow,invalid,left,right,412.000460958,right,1
P212,SPC,JR,word_arrow,2,138,mask,visual_arrow,invalid,right,up,462.624474661,up,1
P212,SPC,JR,word_arrow,2,139,mask,visual_word,neutral,neutral,left,431.932730076,left,1
P212,SPC,JR,word_arrow,2,140,mask,visual_arrow,valid,left,left,399.521786894,left,1
P212,SPC,JR,word_arrow,2,141,mask,visual_word,valid,left,left,466.485069424,left,1
P212,SPC,JR,word_arrow,2,142,mask,visual_word,valid,left,left,363.446783565,left,1
P212,SPC,JR,word_arrow,2,143,mask,visual_word,invalid,right,left,344.072749838,left,1
P212,SPC,JR,word_arrow,2,144,mask,visual_word,valid,left,left,370.349505334,left,1
P212,SPC,JR,word_arrow,2,145,mask,visual_word,valid,right,right,1015.29993955,right,1
P212,SPC,JR,word_arrow,2,146,mask,visual_arrow,valid,right,right,368.913905637,right,1
P212,SPC,JR,word_arrow,2,147,mask,visual_word,valid,right,right,322.871647484,right,1
P212,SPC,JR,word_arrow,2,148,mask,visual_arrow,neutral,neutral,right,337.921597355,right,1
P212,SPC,JR,word_arrow,2,149,mask,visual_arrow,invalid,left,right,406.120423926,right,1
P212,SPC,JR,word_arrow,2,150,mask,visual_arrow,invalid,right,down,681.056486152,down,1
P212,SPC,JR,word_arrow,2,151,mask,visual_word,invalid,left,right,488.038910029,right,1
P212,SPC,JR,word_arrow,2,152,mask,visual_arrow,invalid,left,down,560.642162745,down,1
P212,SPC,JR,word_arrow,2,153,mask,visual_arrow,invalid,right,left,362.921837426,left,1
P212,SPC,JR,word_arrow,2,154,mask,visual_arrow,valid,right,right,383.224129619,right,1
P212,SPC,JR,word_arrow,2,155,mask,visual_arrow,valid,left,left,361.569781031,left,1
P212,SPC,JR,word_arrow,2,156,mask,visual_arrow,invalid,right,left,363.127014542,left,1
P212,SPC,JR,word_arrow,2,157,mask,visual_arrow,valid,right,right,367.421650211,right,1
P212,SPC,JR,word_arrow,2,158,mask,visual_arrow,valid,left,left,459.072125668,left,1
P212,SPC,JR,word_arrow,2,159,mask,visual_arrow,valid,right,right,596.655068744,right,1
P212,SPC,JR,word_arrow,2,160,mask,visual_word,valid,left,left,341.294376354,left,1
P212,SPC,JR,word_arrow,2,161,mask,visual_word,valid,right,right,303.575715458,right,1
P212,SPC,JR,word_arrow,2,162,mask,visual_word,invalid,right,left,317.523278529,left,1
P212,SPC,JR,word_arrow,2,163,mask,visual_word,valid,right,right,452.821425512,right,1
P212,SPC,JR,word_arrow,2,164,mask,visual_arrow,valid,right,right,324.772976805,right,1
P212,SPC,JR,word_arrow,2,165,mask,visual_arrow,valid,left,left,472.391033662,left,1
P212,SPC,JR,word_arrow,2,166,mask,visual_arrow,valid,right,right,312.684811477,right,1
P212,SPC,JR,word_arrow,2,167,mask,visual_arrow,valid,left,left,367.306738161,left,1
P212,SPC,JR,word_arrow,2,168,mask,visual_word,valid,left,left,337.26285398,left,1
P212,SPC,JR,word_arrow,2,169,mask,visual_arrow,valid,right,right,373.557438375,right,1
P212,SPC,JR,word_arrow,2,170,mask,visual_arrow,neutral,neutral,right,335.84325877,right,1
P212,SPC,JR,word_arrow,2,171,mask,visual_arrow,valid,right,right,347.799227282,right,1
P212,SPC,JR,word_arrow,2,172,mask,visual_word,valid,right,right,376.756088866,right,1
P212,SPC,JR,word_arrow,2,173,mask,visual_word,valid,right,right,341.052709089,right,1
P212,SPC,JR,word_arrow,2,174,mask,visual_arrow,valid,right,right,513.658522512,right,1
P212,SPC,JR,word_arrow,2,175,mask,visual_word,invalid,right,up,424.947105232,up,1
P212,SPC,JR,word_arrow,2,176,mask,visual_arrow,valid,right,right,384.250975505,right,1
P212,SPC,JR,word_arrow,2,177,mask,visual_word,invalid,right,left,432.876352745,left,1
P212,SPC,JR,word_arrow,2,178,mask,visual_word,valid,left,left,360.166830418,left,1
P212,SPC,JR,word_arrow,2,179,mask,visual_arrow,valid,left,left,389.104486676,left,1
P212,SPC,JR,word_arrow,2,180,mask,visual_arrow,valid,left,left,303.725517238,left,1
P212,SPC,JR,word_arrow,2,181,mask,visual_word,valid,left,left,398.687634617,left,1
P212,SPC,JR,word_arrow,2,182,mask,visual_arrow,valid,right,right,344.66427454,right,1
P212,SPC,JR,word_arrow,2,183,mask,visual_arrow,invalid,right,down,572.938706144,down,1
P212,SPC,JR,word_arrow,2,184,mask,visual_arrow,valid,right,right,382.554183132,right,1
P212,SPC,JR,word_arrow,2,185,mask,visual_word,valid,right,right,395.173056168,right,1
P212,SPC,JR,word_arrow,2,186,mask,visual_word,valid,right,right,548.121236905,right,1
P212,SPC,JR,word_arrow,2,187,mask,visual_arrow,invalid,right,left,377.072656993,left,1
P212,SPC,JR,word_arrow,2,188,mask,visual_word,valid,right,right,405.374296184,right,1
P212,SPC,JR,word_arrow,2,189,mask,visual_arrow,valid,right,right,438.336432853,right,1
P212,SPC,JR,word_arrow,2,190,mask,visual_word,valid,right,right,502.272632672,right,1
P212,SPC,JR,word_arrow,2,191,mask,visual_arrow,invalid,left,down,557.231293176,down,1
P212,SPC,JR,word_arrow,2,192,mask,visual_word,neutral,neutral,right,378.253145667,right,1
P212,SPC,JR,word_arrow,2,193,mask,visual_word,valid,right,right,491.157218174,right,1
P212,SPC,JR,word_arrow,2,194,mask,visual_word,valid,right,right,387.436182238,right,1
P212,SPC,JR,word_arrow,2,195,mask,visual_arrow,neutral,neutral,left,413.388367335,left,1
P212,SPC,JR,word_arrow,2,196,mask,visual_arrow,valid,right,right,1934.70598216,left,0
P212,SPC,JR,word_arrow,2,197,mask,visual_word,invalid,right,left,349.269396567,left,1
P212,SPC,JR,word_arrow,2,198,mask,visual_word,invalid,right,up,1520.54043842,right,0
P212,SPC,JR,word_arrow,2,199,mask,visual_word,invalid,right,left,1821.13868499,left,1
P212,SPC,JR,word_arrow,2,200,mask,visual_word,neutral,neutral,left,388.424617413,left,1
P212,SPC,JR,word_arrow,2,201,mask,visual_word,neutral,neutral,right,365.038586722,right,1
P212,SPC,JR,word_arrow,2,202,mask,visual_arrow,valid,right,right,321.318895149,right,1
P212,SPC,JR,word_arrow,2,203,mask,visual_arrow,valid,left,left,309.956371842,left,1
P212,SPC,JR,word_arrow,2,204,mask,visual_arrow,invalid,right,up,691.244922578,up,1
P212,SPC,JR,word_arrow,2,205,mask,visual_arrow,invalid,right,up,450.860239507,up,1
P212,SPC,JR,word_arrow,2,206,mask,visual_arrow,valid,left,left,346.814953256,left,1
P212,SPC,JR,word_arrow,2,207,mask,visual_arrow,valid,right,right,478.42023219,right,1
P212,SPC,JR,word_arrow,2,208,mask,visual_word,valid,right,right,462.05087495,right,1
P212,SPC,JR,word_arrow,2,209,mask,visual_arrow,valid,left,left,645.666793629,left,1
P212,SPC,JR,word_arrow,3,210,mask,visual_word,valid,left,left,336.514485592,left,1
P212,SPC,JR,word_arrow,3,211,mask,visual_arrow,valid,right,right,358.807732118,right,1
P212,SPC,JR,word_arrow,3,212,mask,visual_arrow,valid,left,left,372.440967592,left,1
P212,SPC,JR,word_arrow,3,213,mask,visual_arrow,valid,left,left,357.735433558,left,1
P212,SPC,JR,word_arrow,3,214,mask,visual_arrow,invalid,right,up,403.021961334,up,1
P212,SPC,JR,word_arrow,3,215,mask,visual_arrow,valid,left,left,364.319026412,left,1
P212,SPC,JR,word_arrow,3,216,mask,visual_arrow,valid,left,left,360.589988297,left,1
P212,SPC,JR,word_arrow,3,217,mask,visual_arrow,neutral,neutral,right,386.888829817,right,1
P212,SPC,JR,word_arrow,3,218,mask,visual_word,valid,right,right,508.167073713,right,1
P212,SPC,JR,word_arrow,3,219,mask,visual_arrow,neutral,neutral,right,368.464820611,right,1
P212,SPC,JR,word_arrow,3,220,mask,visual_word,invalid,right,up,473.764215945,up,1
P212,SPC,JR,word_arrow,3,221,mask,visual_arrow,invalid,right,left,385.706740723,left,1
P212,SPC,JR,word_arrow,3,222,mask,visual_word,neutral,neutral,right,365.999814356,right,1
P212,SPC,JR,word_arrow,3,223,mask,visual_word,neutral,neutral,left,346.950030886,left,1
P212,SPC,JR,word_arrow,3,224,mask,visual_arrow,invalid,left,up,405.237298051,up,1
P212,SPC,JR,word_arrow,3,225,mask,visual_word,valid,left,left,336.523128033,left,1
P212,SPC,JR,word_arrow,3,226,mask,visual_word,valid,right,right,389.179067453,right,1
P212,SPC,JR,word_arrow,3,227,mask,visual_word,valid,left,left,993.429530761,left,1
P212,SPC,JR,word_arrow,3,228,mask,visual_arrow,valid,right,right,860.38032989,left,0
P212,SPC,JR,word_arrow,3,229,mask,visual_word,invalid,left,down,491.662638902,down,1
P212,SPC,JR,word_arrow,3,230,mask,visual_word,valid,left,left,322.276921885,left,1
P212,SPC,JR,word_arrow,3,231,mask,visual_word,valid,left,left,373.571842385,left,1
P212,SPC,JR,word_arrow,3,232,mask,visual_word,valid,left,left,809.183996811,left,1
P212,SPC,JR,word_arrow,3,233,mask,visual_word,valid,right,right,442.488628789,right,1
P212,SPC,JR,word_arrow,3,234,mask,visual_arrow,invalid,left,down,523.426041822,down,1
P212,SPC,JR,word_arrow,3,235,mask,visual_word,valid,right,right,1233.03063575,left,0
P212,SPC,JR,word_arrow,3,236,mask,visual_arrow,valid,left,left,432.987743756,left,1
P212,SPC,JR,word_arrow,3,237,mask,visual_arrow,invalid,right,down,735.940885963,right,0
P212,SPC,JR,word_arrow,3,238,mask,visual_word,valid,right,right,474.555156135,right,1
P212,SPC,JR,word_arrow,3,239,mask,visual_word,invalid,left,up,395.507549285,up,1
P212,SPC,JR,word_arrow,3,240,mask,visual_word,valid,right,right,475.79262068,right,1
P212,SPC,JR,word_arrow,3,241,mask,visual_word,valid,left,left,451.41943515,left,1
P212,SPC,JR,word_arrow,3,242,mask,visual_arrow,valid,left,left,451.044610818,left,1
P212,SPC,JR,word_arrow,3,243,mask,visual_arrow,valid,left,left,378.339249641,left,1
P212,SPC,JR,word_arrow,3,244,mask,visual_arrow,valid,right,right,470.616459614,right,1
P212,SPC,JR,word_arrow,3,245,mask,visual_arrow,invalid,left,down,550.907932804,down,1
P212,SPC,JR,word_arrow,3,246,mask,visual_arrow,invalid,left,down,458.184838644,down,1
P212,SPC,JR,word_arrow,3,247,mask,visual_arrow,neutral,neutral,left,385.807248764,left,1
P212,SPC,JR,word_arrow,3,248,mask,visual_word,valid,left,left,508.098254504,left,1
P212,SPC,JR,word_arrow,3,249,mask,visual_word,valid,left,left,407.715107896,left,1
P212,SPC,JR,word_arrow,3,250,mask,visual_arrow,valid,right,right,554.005435086,right,1
P212,SPC,JR,word_arrow,3,251,mask,visual_word,invalid,right,down,804.62688813,down,1
P212,SPC,JR,word_arrow,3,252,mask,visual_word,valid,left,left,909.22848921,left,1
P212,SPC,JR,word_arrow,3,253,mask,visual_word,valid,left,left,370.183699182,left,1
P212,SPC,JR,word_arrow,3,254,mask,visual_word,invalid,right,left,375.147961196,left,1
P212,SPC,JR,word_arrow,3,255,mask,visual_word,invalid,right,down,1330.4199889,right,0
P212,SPC,JR,word_arrow,3,256,mask,visual_arrow,valid,left,left,326.037968975,left,1
P212,SPC,JR,word_arrow,3,257,mask,visual_word,valid,left,left,363.659322727,left,1
P212,SPC,JR,word_arrow,3,258,mask,visual_arrow,valid,left,left,385.282622708,left,1
P212,SPC,JR,word_arrow,3,259,mask,visual_arrow,valid,left,left,387.581502669,left,1
P212,SPC,JR,word_arrow,3,260,mask,visual_word,valid,left,left,359.192479169,left,1
P212,SPC,JR,word_arrow,3,261,mask,visual_word,valid,left,left,402.466286614,left,1
P212,SPC,JR,word_arrow,3,262,mask,visual_arrow,valid,right,right,381.782768294,right,1
P212,SPC,JR,word_arrow,3,263,mask,visual_arrow,neutral,neutral,left,426.048211812,left,1
P212,SPC,JR,word_arrow,3,264,mask,visual_arrow,valid,right,right,395.672075101,right,1
P212,SPC,JR,word_arrow,3,265,mask,visual_word,valid,right,right,383.304151881,right,1
P212,SPC,JR,word_arrow,3,266,mask,visual_arrow,valid,right,right,767.915547709,right,1
P212,SPC,JR,word_arrow,3,267,mask,visual_word,invalid,left,down,1041.85965378,left,0
P212,SPC,JR,word_arrow,3,268,mask,visual_word,valid,left,left,521.135804185,left,1
P212,SPC,JR,word_arrow,3,269,mask,visual_arrow,valid,right,right,549.752411025,right,1
P212,SPC,JR,word_arrow,3,270,mask,visual_arrow,valid,right,right,520.056143636,right,1
P212,SPC,JR,word_arrow,3,271,mask,visual_word,neutral,neutral,right,647.007966996,right,1
P212,SPC,JR,word_arrow,3,272,mask,visual_arrow,valid,left,left,504.957860278,left,1
P212,SPC,JR,word_arrow,3,273,mask,visual_word,valid,right,right,535.896393587,right,1
P212,SPC,JR,word_arrow,3,274,mask,visual_arrow,valid,right,right,716.519799142,right,1
P212,SPC,JR,word_arrow,3,275,mask,visual_arrow,valid,right,right,928.462964075,right,1
P212,SPC,JR,word_arrow,3,276,mask,visual_arrow,valid,left,left,1061.75511261,right,0
P212,SPC,JR,word_arrow,3,277,mask,visual_arrow,valid,right,right,419.354508282,right,1
P212,SPC,JR,word_arrow,3,278,mask,visual_arrow,valid,right,right,549.670468259,right,1
P212,SPC,JR,word_arrow,3,279,mask,visual_arrow,invalid,right,up,615.589940222,up,1
P212,SPC,JR,word_arrow,3,280,mask,visual_word,valid,right,right,431.227573717,right,1
P212,SPC,JR,word_arrow,3,281,mask,visual_arrow,valid,right,right,535.166590416,right,1
P212,SPC,JR,word_arrow,3,282,mask,visual_arrow,valid,left,left,674.777298002,left,1
P212,SPC,JR,word_arrow,3,283,mask,visual_arrow,valid,left,left,1608.06304478,left,1
P212,SPC,JR,word_arrow,3,284,mask,visual_arrow,invalid,right,down,896.993402974,right,0
P212,SPC,JR,word_arrow,3,285,mask,visual_word,valid,right,right,1111.95436813,right,1
P212,SPC,JR,word_arrow,3,286,mask,visual_word,invalid,left,right,499.549634638,right,1
P212,SPC,JR,word_arrow,3,287,mask,visual_word,valid,right,right,424.17665082,right,1
P212,SPC,JR,word_arrow,3,288,mask,visual_word,invalid,right,up,759.127501107,up,1
P212,SPC,JR,word_arrow,3,289,mask,visual_word,valid,right,right,425.731323601,right,1
P212,SPC,JR,word_arrow,3,290,mask,visual_arrow,valid,left,left,492.36235366,left,1
P212,SPC,JR,word_arrow,3,291,mask,visual_arrow,valid,left,left,698.677071719,left,1
P212,SPC,JR,word_arrow,3,292,mask,visual_word,invalid,left,right,536.277299572,right,1
P212,SPC,JR,word_arrow,3,293,mask,visual_word,invalid,left,right,1123.87960806,down,0
P212,SPC,JR,word_arrow,3,294,mask,visual_word,valid,right,right,527.50301687,right,1
P212,SPC,JR,word_arrow,3,295,mask,visual_arrow,invalid,left,right,550.108990341,right,1
P212,SPC,JR,word_arrow,3,296,mask,visual_arrow,invalid,right,left,608.726269391,left,1
P212,SPC,JR,word_arrow,3,297,mask,visual_arrow,valid,right,right,731.683700753,right,1
P212,SPC,JR,word_arrow,3,298,mask,visual_word,valid,right,right,489.291738835,right,1
P212,SPC,JR,word_arrow,3,299,mask,visual_word,valid,right,right,456.256301783,right,1
P212,SPC,JR,word_arrow,3,300,mask,visual_word,valid,right,right,792.209991254,right,1
P212,SPC,JR,word_arrow,3,301,mask,visual_word,invalid,right,left,500.504780503,left,1
P212,SPC,JR,word_arrow,3,302,mask,visual_arrow,valid,left,left,530.443995609,left,1
