subj_id,sona_experiment_code,experimenter,cue_contrast,block,trial,mask_type,cue_type,cue_validity,cue_dir,target_loc,rt,response_type,is_correct
P214,SPC,JR,word_arrow,0,0,mask,visual_arrow,invalid,right,down,2116.59683433,timeout,0
P214,SPC,JR,word_arrow,0,1,mask,visual_word,invalid,right,up,1060.13955796,right,0
P214,SPC,JR,word_arrow,0,2,mask,visual_arrow,valid,left,left,835.280316242,left,1
P214,SPC,JR,word_arrow,0,3,mask,visual_arrow,valid,left,left,659.666469262,left,1
P214,SPC,JR,word_arrow,0,4,mask,visual_word,valid,right,right,523.779908137,right,1
P214,SPC,JR,word_arrow,0,5,mask,visual_word,invalid,left,up,527.539010596,up,1
P214,SPC,JR,word_arrow,0,6,mask,visual_arrow,invalid,right,down,739.337739855,down,1
P214,SPC,JR,word_arrow,0,7,mask,visual_word,valid,left,left,1249.37599027,up,0
P214,SPC,JR,word_arrow,0,8,mask,visual_word,valid,left,left,543.508154224,left,1
P214,SPC,JR,word_arrow,0,9,mask,visual_word,valid,right,right,620.291919389,right,1
P214,SPC,JR,word_arrow,0,10,mask,visual_arrow,valid,left,left,597.034393344,left,1
P214,SPC,JR,word_arrow,0,11,mask,visual_word,neutral,neutral,left,520.195893274,left,1
P214,SPC,JR,word_arrow,0,12,mask,visual_arrow,valid,right,right,460.563673318,right,1
P214,SPC,JR,word_arrow,0,13,mask,visual_arrow,invalid,left,up,490.962341748,up,1
P214,SPC,JR,word_arrow,0,14,mask,visual_arrow,neutral,neutral,left,522.079285554,left,1
P214,SPC,JR,word_arrow,1,15,mask,visual_arrow,valid,right,right,477.630715555,right,1
P214,SPC,JR,word_arrow,1,16,mask,visual_arrow,valid,left,left,757.366643724,left,1
P214,SPC,JR,word_arrow,1,17,mask,visual_word,valid,right,right,536.841700959,right,1
P214,SPC,JR,word_arrow,1,18,mask,visual_word,valid,right,right,526.273706462,right,1
P214,SPC,JR,word_arrow,1,19,mask,visual_word,valid,left,left,457.704335597,left,1
P214,SPC,JR,word_arrow,1,20,mask,visual_arrow,valid,left,left,463.754301192,left,1
P214,SPC,JR,word_arrow,1,21,mask,visual_word,valid,right,right,553.181185271,right,1
P214,SPC,JR,word_arrow,1,22,mask,visual_word,valid,right,right,562.923035061,right,1
P214,SPC,JR,word_arrow,1,23,mask,visual_arrow,valid,left,left,582.713698124,left,1
P214,SPC,JR,word_arrow,1,24,mask,visual_arrow,valid,right,right,426.113983005,right,1
P214,SPC,JR,word_arrow,1,25,mask,visual_word,invalid,right,down,577.525726985,down,1
P214,SPC,JR,word_arrow,1,26,mask,visual_arrow,valid,left,left,534.271401819,left,1
P214,SPC,JR,word_arrow,1,27,mask,visual_arrow,valid,left,left,539.058623952,left,1
P214,SPC,JR,word_arrow,1,28,mask,visual_arrow,invalid,left,up,574.162252131,up,1
P214,SPC,JR,word_arrow,1,29,mask,visual_arrow,invalid,right,left,544.905974413,left,1
P214,SPC,JR,word_arrow,1,30,mask,visual_word,neutral,neutral,right,547.989693179,right,1
P214,SPC,JR,word_arrow,1,31,mask,visual_word,valid,left,left,464.390954323,left,1
P214,SPC,JR,word_arrow,1,32,mask,visual_word,invalid,right,left,512.824288191,left,1
P214,SPC,JR,word_arrow,1,33,mask,visual_arrow,valid,left,left,544.634860678,left,1
P214,SPC,JR,word_arrow,1,34,mask,visual_arrow,valid,right,right,533.309540217,right,1
P214,SPC,JR,word_arrow,1,35,mask,visual_word,valid,left,left,490.763247595,left,1
P214,SPC,JR,word_arrow,1,36,mask,visual_arrow,invalid,right,left,562.866059568,left,1
P214,SPC,JR,word_arrow,1,37,mask,visual_word,valid,left,left,476.61667972,left,1
P214,SPC,JR,word_arrow,1,38,mask,visual_word,valid,right,right,499.004529207,right,1
P214,SPC,JR,word_arrow,1,39,mask,visual_word,valid,right,right,443.109645828,right,1
P214,SPC,JR,word_arrow,1,40,mask,visual_arrow,invalid,left,up,659.199782327,up,1
P214,SPC,JR,word_arrow,1,41,mask,visual_word,valid,right,right,490.963622113,right,1
P214,SPC,JR,word_arrow,1,42,mask,visual_arrow,valid,left,left,465.076900902,left,1
P214,SPC,JR,word_arrow,1,43,mask,visual_word,valid,left,left,543.833042611,left,1
P214,SPC,JR,word_arrow,1,44,mask,visual_arrow,valid,right,right,445.905286237,right,1
P214,SPC,JR,word_arrow,1,45,mask,visual_arrow,valid,right,right,463.985724142,right,1
P214,SPC,JR,word_arrow,1,46,mask,visual_word,valid,left,left,469.76681659,left,1
P214,SPC,JR,word_arrow,1,47,mask,visual_word,invalid,left,down,622.859657829,down,1
P214,SPC,JR,word_arrow,1,48,mask,visual_word,valid,left,left,679.241393664,left,1
P214,SPC,JR,word_arrow,1,49,mask,visual_arrow,neutral,neutral,right,422.338236007,right,1
P214,SPC,JR,word_arrow,1,50,mask,visual_word,valid,right,right,457.134900702,right,1
P214,SPC,JR,word_arrow,1,51,mask,visual_word,valid,left,left,464.177136193,left,1
P214,SPC,JR,word_arrow,1,52,mask,visual_arrow,valid,right,right,397.668165737,right,1
P214,SPC,JR,word_arrow,1,53,mask,visual_word,valid,right,right,591.360210004,right,1
P214,SPC,JR,word_arrow,1,54,mask,visual_arrow,valid,left,left,434.832194354,left,1
P214,SPC,JR,word_arrow,1,55,mask,visual_arrow,valid,left,left,468.852327846,left,1
P214,SPC,JR,word_arrow,1,56,mask,visual_word,neutral,neutral,left,398.30513901,left,1
P214,SPC,JR,word_arrow,1,57,mask,visual_word,invalid,left,down,577.088808175,down,1
P214,SPC,JR,word_arrow,1,58,mask,visual_arrow,invalid,right,left,715.466927009,left,1
P214,SPC,JR,word_arrow,1,59,mask,visual_arrow,valid,right,right,480.902965588,right,1
P214,SPC,JR,word_arrow,1,60,mask,visual_word,valid,left,left,470.015204133,left,1
P214,SPC,JR,word_arrow,1,61,mask,visual_word,valid,left,left,565.430277027,left,1
P214,SPC,JR,word_arrow,1,62,mask,visual_word,invalid,right,down,569.191300019,down,1
P214,SPC,JR,word_arrow,1,63,mask,visual_arrow,invalid,right,left,554.589568375,left,1
P214,SPC,JR,word_arrow,1,64,mask,visual_word,valid,left,left,548.398124287,left,1
P214,SPC,JR,word_arrow,1,65,mask,visual_word,invalid,right,left,439.098634815,left,1
P214,SPC,JR,word_arrow,1,66,mask,visual_word,valid,right,right,518.881935888,right,1
P214,SPC,JR,word_arrow,1,67,mask,visual_arrow,neutral,neutral,left,523.648032249,left,1
P214,SPC,JR,word_arrow,1,68,mask,visual_arrow,valid,left,left,543.373397581,left,1
P214,SPC,JR,word_arrow,1,69,mask,visual_arrow,valid,right,right,540.144359256,right,1
P214,SPC,JR,word_arrow,1,70,mask,visual_word,valid,left,left,439.593169343,left,1
P214,SPC,JR,word_arrow,1,71,mask,visual_arrow,invalid,right,left,487.6478402,left,1
P214,SPC,JR,word_arrow,1,72,mask,visual_word,valid,left,left,382.438423258,left,1
P214,SPC,JR,word_arrow,1,73,mask,visual_arrow,valid,left,left,498.512555409,left,1
P214,SPC,JR,word_arrow,1,74,mask,visual_word,invalid,left,right,440.575516521,right,1
P214,SPC,JR,word_arrow,1,75,mask,visual_arrow,valid,right,right,519.979514444,right,1
P214,SPC,JR,word_arrow,1,76,mask,visual_word,valid,left,left,374.442648405,left,1
P214,SPC,JR,word_arrow,1,77,mask,visual_arrow,invalid,left,right,464.228990284,right,1
P214,SPC,JR,word_arrow,1,78,mask,visual_arrow,valid,right,right,495.582478412,right,1
P214,SPC,JR,word_arrow,1,79,mask,visual_word,valid,right,right,540.682425635,right,1
P214,SPC,JR,word_arrow,1,80,mask,visual_arrow,valid,right,right,515.126674436,right,1
P214,SPC,JR,word_arrow,1,81,mask,visual_arrow,invalid,left,up,656.916601321,up,1
P214,SPC,JR,word_arrow,1,82,mask,visual_arrow,valid,right,right,513.33226639,right,1
P214,SPC,JR,word_arrow,1,83,mask,visual_arrow,valid,left,left,441.067810461,left,1
P214,SPC,JR,word_arrow,1,84,mask,visual_arrow,valid,left,left,483.452138986,left,1
P214,SPC,JR,word_arrow,1,85,mask,visual_arrow,valid,left,left,460.199734342,left,1
P214,SPC,JR,word_arrow,1,86,mask,visual_word,valid,right,right,437.987612619,right,1
P214,SPC,JR,word_arrow,1,87,mask,visual_word,valid,right,right,469.09495382,right,1
P214,SPC,JR,word_arrow,1,88,mask,visual_word,valid,left,left,428.812316939,left,1
P214,SPC,JR,word_arrow,1,89,mask,visual_word,valid,right,right,454.212825862,right,1
P214,SPC,JR,word_arrow,1,90,mask,visual_arrow,valid,right,right,437.286621949,right,1
P214,SPC,JR,word_arrow,1,91,mask,visual_word,invalid,left,down,742.075444519,down,1
P214,SPC,JR,word_arrow,1,92,mask,visual_word,valid,right,right,468.489029008,right,1
P214,SPC,JR,word_arrow,1,93,mask,visual_word,valid,right,right,467.597906623,right,1
P214,SPC,JR,word_arrow,1,94,mask,visual_arrow,invalid,right,left,666.034601396,left,1
P214,SPC,JR,word_arrow,1,95,mask,visual_word,valid,right,right,415.760766919,right,1
P214,SPC,JR,word_arrow,1,96,mask,visual_arrow,valid,left,left,530.851271527,left,1
P214,SPC,JR,word_arrow,1,97,mask,visual_arrow,invalid,right,left,462.271977973,left,1
P214,SPC,JR,word_arrow,1,98,mask,visual_arrow,invalid,left,down,709.034457366,down,1
P214,SPC,JR,word_arrow,1,99,mask,visual_arrow,invalid,right,left,442.428820621,left,1
P214,SPC,JR,word_arrow,1,100,mask,visual_arrow,valid,left,left,562.870860886,left,1
P214,SPC,JR,word_arrow,1,101,mask,visual_arrow,valid,right,right,504.326936934,right,1
P214,SPC,JR,word_arrow,1,102,mask,visual_arrow,valid,left,left,445.081382146,left,1
P214,SPC,JR,word_arrow,1,103,mask,visual_arrow,neutral,neutral,left,444.829793705,left,1
P214,SPC,JR,word_arrow,1,104,mask,visual_arrow,invalid,left,down,707.557255577,down,1
P214,SPC,JR,word_arrow,1,105,mask,visual_arrow,valid,right,right,514.683033776,right,1
P214,SPC,JR,word_arrow,1,106,mask,visual_word,valid,right,right,568.129571271,right,1
P214,SPC,JR,word_arrow,1,107,mask,visual_arrow,invalid,right,up,653.491029574,up,1
P214,SPC,JR,word_arrow,1,108,mask,visual_arrow,neutral,neutral,left,533.243922371,left,1
P214,SPC,JR,word_arrow,1,109,mask,visual_arrow,invalid,left,right,409.363506886,right,1
P214,SPC,JR,word_arrow,1,110,mask,visual_word,valid,left,left,515.121873148,left,1
P214,SPC,JR,word_arrow,1,111,mask,visual_word,valid,right,right,448.563929385,right,1
P214,SPC,JR,word_arrow,2,112,mask,visual_word,valid,right,right,371.778563771,right,1
P214,SPC,JR,word_arrow,2,113,mask,visual_word,invalid,left,right,424.513227597,right,1
P214,SPC,JR,word_arrow,2,114,mask,visual_word,invalid,right,left,416.936126625,left,1
P214,SPC,JR,word_arrow,2,115,mask,visual_word,valid,right,right,458.727333811,right,1
P214,SPC,JR,word_arrow,2,116,mask,visual_arrow,valid,left,left,432.429300767,left,1
P214,SPC,JR,word_arrow,2,117,mask,visual_arrow,valid,right,right,369.212745863,right,1
P214,SPC,JR,word_arrow,2,118,mask,visual_arrow,invalid,right,down,498.957796517,down,1
P214,SPC,JR,word_arrow,2,119,mask,visual_word,neutral,neutral,right,528.051790083,right,1
P214,SPC,JR,word_arrow,2,120,mask,visual_word,valid,left,left,492.146983976,left,1
P214,SPC,JR,word_arrow,2,121,mask,visual_word,neutral,neutral,left,441.868988361,left,1
P214,SPC,JR,word_arrow,2,122,mask,visual_arrow,valid,right,right,378.694684972,right,1
P214,SPC,JR,word_arrow,2,123,mask,visual_word,valid,right,right,403.734775871,right,1
P214,SPC,JR,word_arrow,2,124,mask,visual_arrow,valid,left,left,373.783909221,left,1
P214,SPC,JR,word_arrow,2,125,mask,visual_arrow,invalid,right,left,449.581166089,left,1
P214,SPC,JR,word_arrow,2,126,mask,visual_word,valid,left,left,424.332378403,left,1
P214,SPC,JR,word_arrow,2,127,mask,visual_word,valid,right,right,441.393979156,right,1
P214,SPC,JR,word_arrow,2,128,mask,visual_word,invalid,right,left,555.428196472,left,1
P214,SPC,JR,word_arrow,2,129,mask,visual_arrow,invalid,left,down,614.930781157,down,1
P214,SPC,JR,word_arrow,2,130,mask,visual_word,valid,left,left,511.38453657,left,1
P214,SPC,JR,word_arrow,2,131,mask,visual_word,invalid,right,left,470.436438685,left,1
P214,SPC,JR,word_arrow,2,132,mask,visual_arrow,invalid,right,up,788.864171045,up,1
P214,SPC,JR,word_arrow,2,133,mask,visual_arrow,valid,right,right,641.278747818,right,1
P214,SPC,JR,word_arrow,2,134,mask,visual_arrow,invalid,left,right,483.384920692,right,1
P214,SPC,JR,word_arrow,2,135,mask,visual_word,invalid,right,up,666.44943424,up,1
P214,SPC,JR,word_arrow,2,136,mask,visual_word,valid,left,left,449.868284166,left,1
P214,SPC,JR,word_arrow,2,137,mask,visual_word,invalid,left,right,415.977785975,right,1
P214,SPC,JR,word_arrow,2,138,mask,visual_word,valid,left,left,578.742057842,left,1
P214,SPC,JR,word_arrow,2,139,mask,visual_arrow,valid,right,right,493.830962019,right,1
P214,SPC,JR,word_arrow,2,140,mask,visual_word,valid,left,left,490.901205136,left,1
P214,SPC,JR,word_arrow,2,141,mask,visual_word,neutral,neutral,left,529.320295143,left,1
P214,SPC,JR,word_arrow,2,142,mask,visual_arrow,valid,left,left,854.064305488,left,1
P214,SPC,JR,word_arrow,2,143,mask,visual_arrow,invalid,right,up,781.886593148,up,1
P214,SPC,JR,word_arrow,2,144,mask,visual_word,valid,right,right,888.29089512,right,1
P214,SPC,JR,word_arrow,2,145,mask,visual_arrow,neutral,neutral,left,456.400620984,left,1
P214,SPC,JR,word_arrow,2,146,mask,visual_arrow,valid,left,left,392.153385736,left,1
P214,SPC,JR,word_arrow,2,147,mask,visual_arrow,valid,right,right,376.911159838,right,1
P214,SPC,JR,word_arrow,2,148,mask,visual_word,valid,left,left,581.339884433,left,1
P214,SPC,JR,word_arrow,2,149,mask,visual_word,valid,right,right,495.086983661,right,1
P214,SPC,JR,word_arrow,2,150,mask,visual_arrow,valid,right,right,486.814333504,right,1
P214,SPC,JR,word_arrow,2,151,mask,visual_arrow,neutral,neutral,right,437.950482534,right,1
P214,SPC,JR,word_arrow,2,152,mask,visual_word,valid,right,right,542.994094401,right,1
P214,SPC,JR,word_arrow,2,153,mask,visual_arrow,valid,right,right,595.789894869,right,1
P214,SPC,JR,word_arrow,2,154,mask,visual_arrow,valid,left,left,471.220972104,left,1
P214,SPC,JR,word_arrow,2,155,mask,visual_word,invalid,left,up,614.273962536,up,1
P214,SPC,JR,word_arrow,2,156,mask,visual_arrow,valid,left,left,439.711601561,left,1
P214,SPC,JR,word_arrow,2,157,mask,visual_arrow,valid,left,left,446.433749981,left,1
P214,SPC,JR,word_arrow,2,158,mask,visual_word,valid,left,left,589.550117642,left,1
P214,SPC,JR,word_arrow,2,159,mask,visual_word,valid,right,right,377.343597444,right,1
P214,SPC,JR,word_arrow,2,160,mask,visual_word,valid,right,right,502.017188672,right,1
P214,SPC,JR,word_arrow,2,161,mask,visual_arrow,valid,left,left,430.136517127,left,1
P214,SPC,JR,word_arrow,2,162,mask,visual_arrow,valid,left,left,398.19150808,left,1
P214,SPC,JR,word_arrow,2,163,mask,visual_word,valid,left,left,534.984555794,left,1
P214,SPC,JR,word_arrow,2,164,mask,visual_arrow,invalid,left,right,417.761951248,right,1
P214,SPC,JR,word_arrow,2,165,mask,visual_arrow,valid,left,left,369.814509526,left,1
P214,SPC,JR,word_arrow,2,166,mask,visual_word,valid,right,right,644.590368582,right,1
P214,SPC,JR,word_arrow,2,167,mask,visual_arrow,valid,left,left,447.03103244,left,1
P214,SPC,JR,word_arrow,2,168,mask,visual_arrow,neutral,neutral,left,503.438055166,left,1
P214,SPC,JR,word_arrow,2,169,mask,visual_arrow,valid,left,left,422.165388998,left,1
P214,SPC,JR,word_arrow,2,170,mask,visual_arrow,valid,left,left,437.925835839,left,1
P214,SPC,JR,word_arrow,2,171,mask,visual_word,valid,left,left,462.3436775,left,1
P214,SPC,JR,word_arrow,2,172,mask,visual_word,valid,left,left,382.751468394,left,1
P214,SPC,JR,word_arrow,2,173,mask,visual_arrow,valid,right,right,417.862138507,right,1
P214,SPC,JR,word_arrow,2,174,mask,visual_word,valid,right,right,474.586047407,right,1
P214,SPC,JR,word_arrow,2,175,mask,visual_word,invalid,right,up,706.017636781,up,1
P214,SPC,JR,word_arrow,2,176,mask,visual_arrow,valid,left,left,447.14050222,left,1
P214,SPC,JR,word_arrow,2,177,mask,visual_arrow,invalid,right,up,485.535265587,up,1
P214,SPC,JR,word_arrow,2,178,mask,visual_word,invalid,left,right,501.643647091,right,1
P214,SPC,JR,word_arrow,2,179,mask,visual_word,neutral,neutral,right,506.942688429,right,1
P214,SPC,JR,word_arrow,2,180,mask,visual_word,invalid,left,right,502.764271892,right,1
P214,SPC,JR,word_arrow,2,181,mask,visual_arrow,invalid,left,up,659.889569972,left,0
P214,SPC,JR,word_arrow,2,182,mask,visual_arrow,valid,right,right,370.674583479,right,1
P214,SPC,JR,word_arrow,2,183,mask,visual_word,invalid,left,up,732.080085785,up,1
P214,SPC,JR,word_arrow,2,184,mask,visual_arrow,valid,right,right,406.846022117,right,1
P214,SPC,JR,word_arrow,2,185,mask,visual_word,invalid,right,left,455.937455001,left,1
P214,SPC,JR,word_arrow,2,186,mask,visual_arrow,valid,right,right,400.682105537,right,1
P214,SPC,JR,word_arrow,2,187,mask,visual_arrow,valid,left,left,537.765472196,left,1
P214,SPC,JR,word_arrow,2,188,mask,visual_arrow,invalid,right,left,493.867451965,left,1
P214,SPC,JR,word_arrow,2,189,mask,visual_word,valid,right,right,939.260918967,right,1
P214,SPC,JR,word_arrow,2,190,mask,visual_arrow,valid,right,right,433.39468335,right,1
P214,SPC,JR,word_arrow,2,191,mask,visual_arrow,valid,right,right,418.49655105,right,1
P214,SPC,JR,word_arrow,2,192,mask,visual_arrow,invalid,left,down,515.916969423,down,1
P214,SPC,JR,word_arrow,2,193,mask,visual_arrow,neutral,neutral,right,441.621881153,right,1
P214,SPC,JR,word_arrow,2,194,mask,visual_word,valid,left,left,595.039610751,left,1
P214,SPC,JR,word_arrow,2,195,mask,visual_word,valid,right,right,461.144951434,right,1
P214,SPC,JR,word_arrow,2,196,mask,visual_word,invalid,left,down,558.225117245,down,1
P214,SPC,JR,word_arrow,2,197,mask,visual_word,valid,right,right,554.333178647,right,1
P214,SPC,JR,word_arrow,2,198,mask,visual_word,valid,left,left,470.402829582,left,1
P214,SPC,JR,word_arrow,2,199,mask,visual_word,valid,right,right,686.500968237,right,1
P214,SPC,JR,word_arrow,2,200,mask,visual_arrow,valid,left,left,468.936190649,left,1
P214,SPC,JR,word_arrow,2,201,mask,visual_arrow,valid,left,left,562.363522884,left,1
P214,SPC,JR,word_arrow,2,202,mask,visual_arrow,valid,left,left,496.150953055,left,1
P214,SPC,JR,word_arrow,2,203,mask,visual_arrow,valid,right,right,502.533489111,right,1
P214,SPC,JR,word_arrow,2,204,mask,visual_arrow,invalid,left,up,700.928892649,up,1
P214,SPC,JR,word_arrow,2,205,mask,visual_word,valid,left,left,353.054430801,left,1
P214,SPC,JR,word_arrow,2,206,mask,visual_arrow,valid,left,left,348.112926702,left,1
P214,SPC,JR,word_arrow,2,207,mask,visual_word,valid,right,right,433.934670204,right,1
P214,SPC,JR,word_arrow,2,208,mask,visual_word,neutral,neutral,right,496.68037708,right,1
P214,SPC,JR,word_arrow,2,209,mask,visual_arrow,valid,right,right,630.056175287,right,1
P214,SPC,JR,word_arrow,3,210,mask,visual_word,invalid,left,up,555.513019557,up,1
P214,SPC,JR,word_arrow,3,211,mask,visual_arrow,valid,left,left,821.592753229,down,0
P214,SPC,JR,word_arrow,3,212,mask,visual_arrow,neutral,neutral,right,493.071075325,right,1
P214,SPC,JR,word_arrow,3,213,mask,visual_word,valid,left,left,467.154265934,left,1
P214,SPC,JR,word_arrow,3,214,mask,visual_arrow,neutral,neutral,left,419.210025138,left,1
P214,SPC,JR,word_arrow,3,215,mask,visual_word,valid,right,right,396.325400507,right,1
P214,SPC,JR,word_arrow,3,216,mask,visual_arrow,valid,right,right,431.047805003,right,1
P214,SPC,JR,word_arrow,3,217,mask,visual_arrow,valid,right,right,390.500776208,right,1
P214,SPC,JR,word_arrow,3,218,mask,visual_word,valid,left,left,442.897748202,left,1
P214,SPC,JR,word_arrow,3,219,mask,visual_word,valid,left,left,444.994958641,left,1
P214,SPC,JR,word_arrow,3,220,mask,visual_word,valid,right,right,443.75654179,right,1
P214,SPC,JR,word_arrow,3,221,mask,visual_arrow,valid,left,left,444.4684154,left,1
P214,SPC,JR,word_arrow,3,222,mask,visual_word,neutral,neutral,left,414.248035464,left,1
P214,SPC,JR,word_arrow,3,223,mask,visual_arrow,valid,right,right,383.377558697,left,0
P214,SPC,JR,word_arrow,3,224,mask,visual_arrow,valid,right,right,387.746747117,right,1
P214,SPC,JR,word_arrow,3,225,mask,visual_arrow,invalid,right,left,428.502152587,left,1
P214,SPC,JR,word_arrow,3,226,mask,visual_word,valid,right,right,342.568378604,right,1
P214,SPC,JR,word_arrow,3,227,mask,visual_word,invalid,right,left,419.009650621,left,1
P214,SPC,JR,word_arrow,3,228,mask,visual_word,valid,right,right,412.801562023,right,1
P214,SPC,JR,word_arrow,3,229,mask,visual_word,valid,left,left,316.797849024,left,1
P214,SPC,JR,word_arrow,3,230,mask,visual_word,valid,left,left,499.254517228,left,1
P214,SPC,JR,word_arrow,3,231,mask,visual_word,invalid,right,left,450.361858442,left,1
P214,SPC,JR,word_arrow,3,232,mask,visual_word,invalid,left,down,932.42545973,left,0
P214,SPC,JR,word_arrow,3,233,mask,visual_word,valid,right,right,360.212217696,right,1
P214,SPC,JR,word_arrow,3,234,mask,visual_arrow,neutral,neutral,right,378.612102475,right,1
P214,SPC,JR,word_arrow,3,235,mask,visual_word,valid,right,right,397.987292527,right,1
P214,SPC,JR,word_arrow,3,236,mask,visual_word,neutral,neutral,left,449.026135117,left,1
P214,SPC,JR,word_arrow,3,237,mask,visual_arrow,valid,right,right,530.252068565,right,1
P214,SPC,JR,word_arrow,3,238,mask,visual_word,valid,right,right,543.640670279,right,1
P214,SPC,JR,word_arrow,3,239,mask,visual_word,valid,left,left,469.038298441,left,1
P214,SPC,JR,word_arrow,3,240,mask,visual_arrow,invalid,right,left,501.790567039,left,1
P214,SPC,JR,word_arrow,3,241,mask,visual_arrow,valid,right,right,523.558407876,right,1
P214,SPC,JR,word_arrow,3,242,mask,visual_arrow,valid,right,right,442.327993194,right,1
P214,SPC,JR,word_arrow,3,243,mask,visual_word,valid,left,left,546.727589885,left,1
P214,SPC,JR,word_arrow,3,244,mask,visual_word,invalid,right,left,624.157610844,left,1
P214,SPC,JR,word_arrow,3,245,mask,visual_word,valid,left,left,584.567962505,left,1
P214,SPC,JR,word_arrow,3,246,mask,visual_arrow,valid,left,left,594.999919995,left,1
P214,SPC,JR,word_arrow,3,247,mask,visual_word,invalid,right,left,619.421282609,left,1
P214,SPC,JR,word_arrow,3,248,mask,visual_word,valid,right,right,598.172302853,right,1
P214,SPC,JR,word_arrow,3,249,mask,visual_arrow,valid,left,left,537.593265355,left,1
P214,SPC,JR,word_arrow,3,250,mask,visual_arrow,neutral,neutral,right,468.753420922,right,1
P214,SPC,JR,word_arrow,3,251,mask,visual_word,valid,left,left,573.129651253,left,1
P214,SPC,JR,word_arrow,3,252,mask,visual_arrow,valid,left,left,583.546564681,left,1
P214,SPC,JR,word_arrow,3,253,mask,visual_arrow,valid,right,right,577.958484733,right,1
P214,SPC,JR,word_arrow,3,254,mask,visual_arrow,valid,left,left,614.983915613,left,1
P214,SPC,JR,word_arrow,3,255,mask,visual_arrow,invalid,right,up,730.48541203,up,1
P214,SPC,JR,word_arrow,3,256,mask,visual_word,valid,left,left,473.268248956,left,1
P214,SPC,JR,word_arrow,3,257,mask,visual_word,invalid,right,down,680.695869261,right,0
P214,SPC,JR,word_arrow,3,258,mask,visual_arrow,valid,left,left,542.726821703,left,1
P214,SPC,JR,word_arrow,3,259,mask,visual_word,valid,left,left,617.841012776,left,1
P214,SPC,JR,word_arrow,3,260,mask,visual_word,valid,left,left,530.325368512,left,1
P214,SPC,JR,word_arrow,3,261,mask,visual_arrow,invalid,left,down,725.065697858,left,0
P214,SPC,JR,word_arrow,3,262,mask,visual_arrow,valid,left,left,983.457900555,left,1
P214,SPC,JR,word_arrow,3,263,mask,visual_arrow,valid,right,right,516.583070596,right,1
P214,SPC,JR,word_arrow,3,264,mask,visual_word,neutral,neutral,right,464.011331089,right,1
P214,SPC,JR,word_arrow,3,265,mask,visual_word,valid,right,right,478.789430723,right,1
P214,SPC,JR,word_arrow,3,266,mask,visual_word,valid,right,right,511.550341675,right,1
P214,SPC,JR,word_arrow,3,267,mask,visual_arrow,valid,left,left,1075.62793081,left,1
P214,SPC,JR,word_arrow,3,268,mask,visual_word,valid,right,right,714.704479615,right,1
P214,SPC,JR,word_arrow,3,269,mask,visual_arrow,valid,right,right,599.191780144,right,1
P214,SPC,JR,word_arrow,3,270,mask,visual_arrow,valid,right,right,708.971080137,right,1
P214,SPC,JR,word_arrow,3,271,mask,visual_word,valid,left,left,564.015172131,left,1
P214,SPC,JR,word_arrow,3,272,mask,visual_word,neutral,neutral,right,480.090904719,right,1
P214,SPC,JR,word_arrow,3,273,mask,visual_word,valid,left,left,766.861706361,right,0
P214,SPC,JR,word_arrow,3,274,mask,visual_word,valid,right,right,675.967543182,right,1
P214,SPC,JR,word_arrow,3,275,mask,visual_word,invalid,right,left,665.127154585,left,1
P214,SPC,JR,word_arrow,3,276,mask,visual_word,neutral,neutral,left,440.46604677,left,1
P214,SPC,JR,word_arrow,3,277,mask,visual_arrow,valid,right,right,423.878494941,right,1
P214,SPC,JR,word_arrow,3,278,mask,visual_word,valid,left,left,665.542307514,left,1
P214,SPC,JR,word_arrow,3,279,mask,visual_arrow,invalid,left,up,697.816045984,left,0
P214,SPC,JR,word_arrow,3,280,mask,visual_word,invalid,left,right,519.864603179,right,1
P214,SPC,JR,word_arrow,3,281,mask,visual_word,valid,left,left,685.576876916,right,0
P214,SPC,JR,word_arrow,3,282,mask,visual_arrow,valid,left,left,485.686666769,left,1
P214,SPC,JR,word_arrow,3,283,mask,visual_word,invalid,right,down,860.785173572,right,0
P214,SPC,JR,word_arrow,3,284,mask,visual_arrow,invalid,left,right,1637.23572812,down,0
P214,SPC,JR,word_arrow,3,285,mask,visual_arrow,invalid,left,down,1061.66701345,left,0
P214,SPC,JR,word_arrow,3,286,mask,visual_arrow,valid,right,right,447.446505452,right,1
P214,SPC,JR,word_arrow,3,287,mask,visual_word,invalid,left,up,567.203879444,right,0
P214,SPC,JR,word_arrow,3,288,mask,visual_word,valid,right,right,340.30952421,right,1
P214,SPC,JR,word_arrow,3,289,mask,visual_arrow,valid,left,left,577.727381838,left,1
P214,SPC,JR,word_arrow,3,290,mask,visual_word,valid,left,left,478.812797082,left,1
P214,SPC,JR,word_arrow,3,291,mask,visual_word,invalid,left,down,556.546260603,down,1
P214,SPC,JR,word_arrow,3,292,mask,visual_word,invalid,left,up,1103.66531694,down,0
P214,SPC,JR,word_arrow,3,293,mask,visual_arrow,valid,right,right,463.111886434,right,1
P214,SPC,JR,word_arrow,3,294,mask,visual_arrow,valid,right,right,357.382968155,right,1
P214,SPC,JR,word_arrow,3,295,mask,visual_word,valid,left,left,711.271865963,right,0
P214,SPC,JR,word_arrow,3,296,mask,visual_word,invalid,left,up,580.713153991,left,0
P214,SPC,JR,word_arrow,3,297,mask,visual_word,invalid,right,left,469.819630933,left,1
P214,SPC,JR,word_arrow,3,298,mask,visual_arrow,invalid,left,right,517.599347018,right,1
P214,SPC,JR,word_arrow,3,299,mask,visual_arrow,valid,left,left,444.010690902,left,1
P214,SPC,JR,word_arrow,3,300,mask,visual_arrow,valid,right,right,486.036521936,right,1
P214,SPC,JR,word_arrow,3,301,mask,visual_arrow,valid,right,right,574.493542255,right,1
P214,SPC,JR,word_arrow,3,302,mask,visual_arrow,valid,right,right,1034.91829778,right,1
