subj_id,sona_experiment_code,experimenter,cue_contrast,block,trial,mask_type,cue_type,cue_validity,cue_dir,target_loc,rt,response_type,is_correct
P213,SPC,JR,word_arrow,0,0,nomask,visual_arrow,valid,left,left,1431.41110381,left,1
P213,SPC,JR,word_arrow,0,1,nomask,visual_word,valid,right,right,552.570779226,right,1
P213,SPC,JR,word_arrow,0,2,nomask,visual_word,valid,right,right,446.612678701,right,1
P213,SPC,JR,word_arrow,0,3,nomask,visual_arrow,valid,right,right,368.00153635,right,1
P213,SPC,JR,word_arrow,0,4,nomask,visual_arrow,valid,right,right,658.085879404,right,1
P213,SPC,JR,word_arrow,0,5,nomask,visual_word,valid,right,right,736.87659041,right,1
P213,SPC,JR,word_arrow,0,6,nomask,visual_arrow,valid,left,left,901.622521225,left,1
P213,SPC,JR,word_arrow,0,7,nomask,visual_arrow,valid,right,right,266.002272605,right,1
P213,SPC,JR,word_arrow,0,8,nomask,visual_arrow,valid,right,right,385.431237286,right,1
P213,SPC,JR,word_arrow,0,9,nomask,visual_arrow,valid,left,left,316.198005923,left,1
P213,SPC,JR,word_arrow,0,10,nomask,visual_word,invalid,left,up,746.575868572,left,0
P213,SPC,JR,word_arrow,0,11,nomask,visual_arrow,valid,left,left,421.382456087,left,1
P213,SPC,JR,word_arrow,0,12,nomask,visual_arrow,neutral,neutral,left,588.744778652,left,1
P213,SPC,JR,word_arrow,0,13,nomask,visual_arrow,valid,right,right,895.173087134,right,1
P213,SPC,JR,word_arrow,0,14,nomask,visual_word,invalid,right,down,902.606789023,down,1
P213,SPC,JR,word_arrow,1,15,nomask,visual_word,invalid,right,up,1263.8442457,up,1
P213,SPC,JR,word_arrow,1,16,nomask,visual_word,valid,left,left,989.971352275,up,0
P213,SPC,JR,word_arrow,1,17,nomask,visual_arrow,valid,left,left,615.109709906,left,1
P213,SPC,JR,word_arrow,1,18,nomask,visual_word,valid,right,right,618.169422029,right,1
P213,SPC,JR,word_arrow,1,19,nomask,visual_arrow,invalid,left,down,811.590032536,down,1
P213,SPC,JR,word_arrow,1,20,nomask,visual_arrow,valid,left,left,539.985916228,left,1
P213,SPC,JR,word_arrow,1,21,nomask,visual_word,valid,left,left,1102.39905259,down,0
P213,SPC,JR,word_arrow,1,22,nomask,visual_arrow,invalid,right,up,444.844197598,up,1
P213,SPC,JR,word_arrow,1,23,nomask,visual_word,invalid,right,left,371.95141078,left,1
P213,SPC,JR,word_arrow,1,24,nomask,visual_arrow,valid,left,left,469.042139361,left,1
P213,SPC,JR,word_arrow,1,25,nomask,visual_word,valid,right,right,466.406862601,right,1
P213,SPC,JR,word_arrow,1,26,nomask,visual_arrow,invalid,right,left,456.819935003,left,1
P213,SPC,JR,word_arrow,1,27,nomask,visual_arrow,invalid,right,left,416.941568139,left,1
P213,SPC,JR,word_arrow,1,28,nomask,visual_arrow,valid,right,right,497.046876699,right,1
P213,SPC,JR,word_arrow,1,29,nomask,visual_word,valid,right,right,383.405086235,right,1
P213,SPC,JR,word_arrow,1,30,nomask,visual_arrow,neutral,neutral,left,379.481779062,left,1
P213,SPC,JR,word_arrow,1,31,nomask,visual_arrow,valid,left,left,391.223212704,left,1
P213,SPC,JR,word_arrow,1,32,nomask,visual_arrow,invalid,right,up,431.640926283,up,1
P213,SPC,JR,word_arrow,1,33,nomask,visual_arrow,valid,right,right,434.436886804,right,1
P213,SPC,JR,word_arrow,1,34,nomask,visual_arrow,valid,right,right,362.131139729,right,1
P213,SPC,JR,word_arrow,1,35,nomask,visual_word,valid,left,left,581.559784245,left,1
P213,SPC,JR,word_arrow,1,36,nomask,visual_word,valid,right,right,470.623049419,right,1
P213,SPC,JR,word_arrow,1,37,nomask,visual_word,neutral,neutral,right,365.050973953,right,1
P213,SPC,JR,word_arrow,1,38,nomask,visual_word,valid,left,left,390.132035944,left,1
P213,SPC,JR,word_arrow,1,39,nomask,visual_arrow,valid,right,right,569.891010295,right,1
P213,SPC,JR,word_arrow,1,40,nomask,visual_arrow,valid,right,right,391.293631867,right,1
P213,SPC,JR,word_arrow,1,41,nomask,visual_arrow,invalid,right,up,437.680969248,up,1
P213,SPC,JR,word_arrow,1,42,nomask,visual_word,invalid,right,down,1085.42707609,right,0
P213,SPC,JR,word_arrow,1,43,nomask,visual_word,valid,right,right,338.875854155,right,1
P213,SPC,JR,word_arrow,1,44,nomask,visual_word,invalid,right,left,334.285165532,left,1
P213,SPC,JR,word_arrow,1,45,nomask,visual_word,valid,left,left,372.336475528,left,1
P213,SPC,JR,word_arrow,1,46,nomask,visual_arrow,valid,right,right,295.08442292,right,1
P213,SPC,JR,word_arrow,1,47,nomask,visual_arrow,valid,right,right,309.518108959,right,1
P213,SPC,JR,word_arrow,1,48,nomask,visual_word,valid,right,right,394.635980949,right,1
P213,SPC,JR,word_arrow,1,49,nomask,visual_word,valid,left,left,331.666533253,left,1
P213,SPC,JR,word_arrow,1,50,nomask,visual_arrow,invalid,right,up,360.065937974,up,1
P213,SPC,JR,word_arrow,1,51,nomask,visual_arrow,invalid,left,right,340.453563374,right,1
P213,SPC,JR,word_arrow,1,52,nomask,visual_word,valid,right,right,434.55179804,right,1
P213,SPC,JR,word_arrow,1,53,nomask,visual_word,valid,left,left,292.674487457,left,1
P213,SPC,JR,word_arrow,1,54,nomask,visual_word,valid,right,right,369.030936505,right,1
P213,SPC,JR,word_arrow,1,55,nomask,visual_arrow,valid,left,left,286.443992751,left,1
P213,SPC,JR,word_arrow,1,56,nomask,visual_word,valid,left,left,341.824816307,left,1
P213,SPC,JR,word_arrow,1,57,nomask,visual_word,valid,right,right,297.304866835,right,1
P213,SPC,JR,word_arrow,1,58,nomask,visual_arrow,invalid,right,left,303.019701387,left,1
P213,SPC,JR,word_arrow,1,59,nomask,visual_arrow,invalid,right,left,371.429988998,left,1
P213,SPC,JR,word_arrow,1,60,nomask,visual_arrow,valid,right,right,358.471584274,right,1
P213,SPC,JR,word_arrow,1,61,nomask,visual_word,valid,right,right,305.885760929,right,1
P213,SPC,JR,word_arrow,1,62,nomask,visual_arrow,valid,right,right,408.618024085,right,1
P213,SPC,JR,word_arrow,1,63,nomask,visual_word,valid,right,right,345.059616142,right,1
P213,SPC,JR,word_arrow,1,64,nomask,visual_word,valid,right,right,316.154154018,right,1
P213,SPC,JR,word_arrow,1,65,nomask,visual_word,valid,right,right,337.87206118,right,1
P213,SPC,JR,word_arrow,1,66,nomask,visual_word,valid,right,right,328.256645822,right,1
P213,SPC,JR,word_arrow,1,67,nomask,visual_arrow,valid,left,left,315.997951548,left,1
P213,SPC,JR,word_arrow,1,68,nomask,visual_arrow,valid,right,right,271.417825599,right,1
P213,SPC,JR,word_arrow,1,69,nomask,visual_arrow,valid,right,right,293.175743893,right,1
P213,SPC,JR,word_arrow,1,70,nomask,visual_word,invalid,right,up,410.911447951,up,1
P213,SPC,JR,word_arrow,1,71,nomask,visual_word,valid,right,right,267.298945342,right,1
P213,SPC,JR,word_arrow,1,72,nomask,visual_word,valid,left,left,244.410479674,left,1
P213,SPC,JR,word_arrow,1,73,nomask,visual_word,valid,left,left,244.47609752,left,1
P213,SPC,JR,word_arrow,1,74,nomask,visual_word,valid,right,right,235.204135533,right,1
P213,SPC,JR,word_arrow,1,75,nomask,visual_arrow,invalid,right,up,341.919882223,up,1
P213,SPC,JR,word_arrow,1,76,nomask,visual_word,neutral,neutral,left,337.34903892,left,1
P213,SPC,JR,word_arrow,1,77,nomask,visual_word,invalid,left,right,333.741657669,right,1
P213,SPC,JR,word_arrow,1,78,nomask,visual_arrow,neutral,neutral,right,339.51474796,right,1
P213,SPC,JR,word_arrow,1,79,nomask,visual_arrow,invalid,left,right,368.894579355,right,1
P213,SPC,JR,word_arrow,1,80,nomask,visual_word,valid,right,right,323.009138461,right,1
P213,SPC,JR,word_arrow,1,81,nomask,visual_word,invalid,right,up,447.70129479,up,1
P213,SPC,JR,word_arrow,1,82,nomask,visual_arrow,valid,right,right,360.452603083,right,1
P213,SPC,JR,word_arrow,1,83,nomask,visual_word,invalid,right,down,611.542019411,down,1
P213,SPC,JR,word_arrow,1,84,nomask,visual_arrow,neutral,neutral,right,307.298625121,right,1
P213,SPC,JR,word_arrow,1,85,nomask,visual_word,valid,right,right,377.708176617,right,1
P213,SPC,JR,word_arrow,1,86,nomask,visual_arrow,valid,right,right,317.076324718,right,1
P213,SPC,JR,word_arrow,1,87,nomask,visual_word,valid,left,left,284.168493818,left,1
P213,SPC,JR,word_arrow,1,88,nomask,visual_arrow,neutral,neutral,left,346.234655823,left,1
P213,SPC,JR,word_arrow,1,89,nomask,visual_word,invalid,right,up,862.984171719,left,0
P213,SPC,JR,word_arrow,1,90,nomask,visual_arrow,valid,right,right,758.081078064,left,0
P213,SPC,JR,word_arrow,1,91,nomask,visual_word,invalid,left,up,354.481378919,left,0
P213,SPC,JR,word_arrow,1,92,nomask,visual_word,invalid,left,right,556.578269228,right,1
P213,SPC,JR,word_arrow,1,93,nomask,visual_word,valid,right,right,318.665557075,right,1
P213,SPC,JR,word_arrow,1,94,nomask,visual_arrow,valid,right,right,757.409215206,right,1
P213,SPC,JR,word_arrow,1,95,nomask,visual_word,valid,right,right,242.162188166,right,1
P213,SPC,JR,word_arrow,1,96,nomask,visual_arrow,valid,left,left,235.230062623,left,1
P213,SPC,JR,word_arrow,1,97,nomask,visual_word,valid,right,right,1465.9577806,right,1
P213,SPC,JR,word_arrow,1,98,nomask,visual_arrow,valid,right,right,272.437302978,right,1
P213,SPC,JR,word_arrow,1,99,nomask,visual_word,neutral,neutral,left,617.505241418,up,0
P213,SPC,JR,word_arrow,1,100,nomask,visual_arrow,valid,left,left,211.60251589,left,1
P213,SPC,JR,word_arrow,2,101,nomask,visual_word,invalid,left,up,470.963622094,up,1
P213,SPC,JR,word_arrow,2,102,nomask,visual_arrow,valid,right,right,238.72221238,right,1
P213,SPC,JR,word_arrow,2,103,nomask,visual_word,valid,right,right,168.450618628,right,1
P213,SPC,JR,word_arrow,2,104,nomask,visual_word,invalid,right,down,562.17851257,down,1
P213,SPC,JR,word_arrow,2,105,nomask,visual_arrow,valid,left,left,252.63287616,left,1
P213,SPC,JR,word_arrow,2,106,nomask,visual_arrow,invalid,left,right,379.048701259,right,1
P213,SPC,JR,word_arrow,2,107,nomask,visual_word,valid,left,left,534.7563338,left,1
P213,SPC,JR,word_arrow,2,108,nomask,visual_word,invalid,right,left,233.83704375,right,0
P213,SPC,JR,word_arrow,2,109,nomask,visual_arrow,valid,left,left,274.929180741,left,1
P213,SPC,JR,word_arrow,2,110,nomask,visual_word,valid,left,left,569.318374619,left,1
P213,SPC,JR,word_arrow,2,111,nomask,visual_arrow,invalid,left,up,308.116767788,up,1
P213,SPC,JR,word_arrow,2,112,nomask,visual_arrow,valid,right,right,362.472352455,right,1
P213,SPC,JR,word_arrow,2,113,nomask,visual_arrow,valid,left,left,181.897156057,left,1
P213,SPC,JR,word_arrow,2,114,nomask,visual_word,valid,left,left,312.287502224,left,1
P213,SPC,JR,word_arrow,2,115,nomask,visual_arrow,invalid,left,up,431.037242175,up,1
P213,SPC,JR,word_arrow,2,116,nomask,visual_arrow,valid,left,left,279.109837837,left,1
P213,SPC,JR,word_arrow,2,117,nomask,visual_arrow,neutral,neutral,left,407.513723709,left,1
P213,SPC,JR,word_arrow,2,118,nomask,visual_arrow,valid,right,right,370.901845279,right,1
P213,SPC,JR,word_arrow,2,119,nomask,visual_word,valid,left,left,199.331658194,left,1
P213,SPC,JR,word_arrow,2,120,nomask,visual_word,valid,right,right,1591.72991058,right,1
P213,SPC,JR,word_arrow,2,121,nomask,visual_word,invalid,right,left,264.53883457,left,1
P213,SPC,JR,word_arrow,2,122,nomask,visual_word,valid,left,left,351.933165803,left,1
P213,SPC,JR,word_arrow,2,123,nomask,visual_arrow,valid,left,left,338.657234679,left,1
P213,SPC,JR,word_arrow,2,124,nomask,visual_arrow,valid,right,right,432.404013933,right,1
P213,SPC,JR,word_arrow,2,125,nomask,visual_arrow,valid,left,left,272.851495654,left,1
P213,SPC,JR,word_arrow,2,126,nomask,visual_word,valid,right,right,263.246002956,right,1
P213,SPC,JR,word_arrow,2,127,nomask,visual_arrow,valid,right,right,213.31050049,right,1
P213,SPC,JR,word_arrow,2,128,nomask,visual_arrow,valid,right,right,261.047645006,right,1
P213,SPC,JR,word_arrow,2,129,nomask,visual_arrow,invalid,right,up,422.087927931,up,1
P213,SPC,JR,word_arrow,2,130,nomask,visual_arrow,valid,left,left,222.8583775,left,1
P213,SPC,JR,word_arrow,2,131,nomask,visual_arrow,valid,right,right,264.288526494,right,1
P213,SPC,JR,word_arrow,2,132,nomask,visual_arrow,valid,right,right,240.366499755,right,1
P213,SPC,JR,word_arrow,2,133,nomask,visual_word,valid,right,right,257.73634424,right,1
P213,SPC,JR,word_arrow,2,134,nomask,visual_arrow,valid,left,left,242.495398736,left,1
P213,SPC,JR,word_arrow,2,135,nomask,visual_arrow,valid,right,right,283.20791258,right,1
P213,SPC,JR,word_arrow,2,136,nomask,visual_word,valid,right,right,267.626394401,right,1
P213,SPC,JR,word_arrow,2,137,nomask,visual_arrow,valid,right,right,217.356080771,right,1
P213,SPC,JR,word_arrow,2,138,nomask,visual_word,invalid,right,left,332.095770049,left,1
P213,SPC,JR,word_arrow,2,139,nomask,visual_word,invalid,left,down,161.140150158,right,0
P213,SPC,JR,word_arrow,2,140,nomask,visual_word,valid,left,left,293.902021367,left,1
P213,SPC,JR,word_arrow,2,141,nomask,visual_word,neutral,neutral,left,324.650545022,left,1
P213,SPC,JR,word_arrow,2,142,nomask,visual_arrow,valid,right,right,218.405326246,right,1
P213,SPC,JR,word_arrow,2,143,nomask,visual_word,valid,left,left,282.452827203,left,1
P213,SPC,JR,word_arrow,2,144,nomask,visual_word,valid,right,right,241.172479,right,1
P213,SPC,JR,word_arrow,2,145,nomask,visual_word,valid,right,right,265.587439877,right,1
P213,SPC,JR,word_arrow,2,146,nomask,visual_arrow,valid,left,left,248.997007264,left,1
P213,SPC,JR,word_arrow,2,147,nomask,visual_word,valid,left,left,322.090808651,left,1
P213,SPC,JR,word_arrow,2,148,nomask,visual_word,valid,right,right,270.811260678,right,1
P213,SPC,JR,word_arrow,2,149,nomask,visual_arrow,valid,left,left,236.213690136,left,1
P213,SPC,JR,word_arrow,2,150,nomask,visual_arrow,valid,right,right,227.944240789,right,1
P213,SPC,JR,word_arrow,2,151,nomask,visual_arrow,valid,left,left,219.026615261,left,1
P213,SPC,JR,word_arrow,2,152,nomask,visual_word,invalid,right,left,379.797384958,left,1
P213,SPC,JR,word_arrow,2,153,nomask,visual_word,invalid,right,left,413.856568979,left,1
P213,SPC,JR,word_arrow,2,154,nomask,visual_arrow,valid,right,right,341.976857744,right,1
P213,SPC,JR,word_arrow,2,155,nomask,visual_word,invalid,left,right,451.658851234,right,1
P213,SPC,JR,word_arrow,2,156,nomask,visual_arrow,valid,left,left,396.740553435,left,1
P213,SPC,JR,word_arrow,2,157,nomask,visual_word,valid,left,left,462.13882172,left,1
P213,SPC,JR,word_arrow,2,158,nomask,visual_word,invalid,right,left,509.253396885,left,1
P213,SPC,JR,word_arrow,2,159,nomask,visual_arrow,valid,left,left,330.327609088,left,1
P213,SPC,JR,word_arrow,2,160,nomask,visual_word,valid,right,right,287.044155993,right,1
P213,SPC,JR,word_arrow,2,161,nomask,visual_arrow,invalid,right,down,334.110397962,left,0
P213,SPC,JR,word_arrow,2,162,nomask,visual_word,invalid,left,right,505.886081024,right,1
P213,SPC,JR,word_arrow,2,163,nomask,visual_word,valid,left,left,301.639165962,left,1
P213,SPC,JR,word_arrow,2,164,nomask,visual_word,valid,right,right,403.970680083,right,1
P213,SPC,JR,word_arrow,2,165,nomask,visual_arrow,invalid,left,up,486.749675823,up,1
P213,SPC,JR,word_arrow,2,166,nomask,visual_word,valid,left,left,397.51292346,left,1
P213,SPC,JR,word_arrow,2,167,nomask,visual_arrow,valid,left,left,281.602355768,left,1
P213,SPC,JR,word_arrow,2,168,nomask,visual_arrow,valid,left,left,336.701502791,left,1
P213,SPC,JR,word_arrow,2,169,nomask,visual_word,invalid,left,up,431.070851278,up,1
P213,SPC,JR,word_arrow,2,170,nomask,visual_arrow,neutral,neutral,right,342.113854946,right,1
P213,SPC,JR,word_arrow,2,171,nomask,visual_word,neutral,neutral,left,330.899604713,left,1
P213,SPC,JR,word_arrow,2,172,nomask,visual_arrow,invalid,left,right,343.972600531,right,1
P213,SPC,JR,word_arrow,2,173,nomask,visual_arrow,valid,left,left,314.391754568,left,1
P213,SPC,JR,word_arrow,2,174,nomask,visual_arrow,valid,left,left,294.16705342,left,1
P213,SPC,JR,word_arrow,2,175,nomask,visual_word,valid,left,left,332.51860505,left,1
P213,SPC,JR,word_arrow,2,176,nomask,visual_arrow,valid,right,right,263.930029003,right,1
P213,SPC,JR,word_arrow,2,177,nomask,visual_arrow,valid,right,right,269.340140512,right,1
P213,SPC,JR,word_arrow,2,178,nomask,visual_word,valid,right,right,220.076500787,right,1
P213,SPC,JR,word_arrow,2,179,nomask,visual_arrow,valid,left,left,1389.47745785,left,1
P213,SPC,JR,word_arrow,2,180,nomask,visual_arrow,valid,left,left,368.924027425,left,1
P213,SPC,JR,word_arrow,2,181,nomask,visual_arrow,valid,left,left,341.001552413,left,1
P213,SPC,JR,word_arrow,2,182,nomask,visual_word,invalid,left,right,507.089288323,right,1
P213,SPC,JR,word_arrow,2,183,nomask,visual_arrow,valid,left,left,240.784213296,left,1
P213,SPC,JR,word_arrow,2,184,nomask,visual_arrow,neutral,neutral,right,488.561368664,right,1
P213,SPC,JR,word_arrow,2,185,nomask,visual_arrow,valid,right,right,336.956932326,right,1
P213,SPC,JR,word_arrow,2,186,nomask,visual_word,valid,right,right,255.368980346,right,1
P213,SPC,JR,word_arrow,2,187,nomask,visual_word,valid,left,left,277.4591489,left,1
P213,SPC,JR,word_arrow,2,188,nomask,visual_word,valid,left,left,324.19570128,left,1
P213,SPC,JR,word_arrow,2,189,nomask,visual_word,valid,right,right,218.951714924,right,1
P213,SPC,JR,word_arrow,2,190,nomask,visual_arrow,valid,right,right,371.361170313,right,1
P213,SPC,JR,word_arrow,2,191,nomask,visual_arrow,valid,right,right,279.747771448,right,1
P213,SPC,JR,word_arrow,2,192,nomask,visual_word,valid,left,left,399.482739274,left,1
P213,SPC,JR,word_arrow,2,193,nomask,visual_word,valid,right,right,327.575820615,right,1
P213,SPC,JR,word_arrow,2,194,nomask,visual_word,valid,left,left,427.649760735,left,1
P213,SPC,JR,word_arrow,2,195,nomask,visual_word,neutral,neutral,right,229.047580855,right,1
P213,SPC,JR,word_arrow,2,196,nomask,visual_arrow,valid,right,right,308.440055698,right,1
P213,SPC,JR,word_arrow,2,197,nomask,visual_arrow,valid,left,left,323.512635427,left,1
P213,SPC,JR,word_arrow,2,198,nomask,visual_arrow,valid,right,right,239.936622675,right,1
P213,SPC,JR,word_arrow,2,199,nomask,visual_arrow,invalid,left,right,400.032008649,right,1
P213,SPC,JR,word_arrow,2,200,nomask,visual_word,valid,right,right,274.466654984,right,1
P213,SPC,JR,word_arrow,2,201,nomask,visual_arrow,invalid,left,up,473.142774892,up,1
P213,SPC,JR,word_arrow,2,202,nomask,visual_word,invalid,left,right,369.570923271,right,1
P213,SPC,JR,word_arrow,2,203,nomask,visual_word,invalid,right,up,662.302066106,up,1
P213,SPC,JR,word_arrow,3,204,nomask,visual_arrow,invalid,right,down,474.224989186,down,1
P213,SPC,JR,word_arrow,3,205,nomask,visual_word,valid,right,right,376.995342784,right,1
P213,SPC,JR,word_arrow,3,206,nomask,visual_word,valid,left,left,534.065265791,left,1
P213,SPC,JR,word_arrow,3,207,nomask,visual_word,valid,right,right,346.483683563,right,1
P213,SPC,JR,word_arrow,3,208,nomask,visual_word,valid,left,left,350.580157829,left,1
P213,SPC,JR,word_arrow,3,209,nomask,visual_arrow,invalid,left,right,330.61952854,right,1
P213,SPC,JR,word_arrow,3,210,nomask,visual_arrow,valid,left,left,344.720323919,left,1
P213,SPC,JR,word_arrow,3,211,nomask,visual_arrow,valid,left,left,349.090472679,left,1
P213,SPC,JR,word_arrow,3,212,nomask,visual_word,valid,left,left,351.187362918,left,1
P213,SPC,JR,word_arrow,3,213,nomask,visual_word,valid,right,right,290.274474653,right,1
P213,SPC,JR,word_arrow,3,214,nomask,visual_arrow,valid,right,right,951.672294876,left,0
P213,SPC,JR,word_arrow,3,215,nomask,visual_word,valid,left,left,405.764127849,left,1
P213,SPC,JR,word_arrow,3,216,nomask,visual_word,invalid,left,up,446.170958574,up,1
P213,SPC,JR,word_arrow,3,217,nomask,visual_arrow,valid,left,left,278.927388252,left,1
P213,SPC,JR,word_arrow,3,218,nomask,visual_arrow,invalid,right,left,319.666469237,left,1
P213,SPC,JR,word_arrow,3,219,nomask,visual_arrow,neutral,neutral,left,326.066930196,left,1
P213,SPC,JR,word_arrow,3,220,nomask,visual_word,valid,right,right,497.126258328,right,1
P213,SPC,JR,word_arrow,3,221,nomask,visual_arrow,valid,left,left,224.883888499,left,1
P213,SPC,JR,word_arrow,3,222,nomask,visual_word,neutral,neutral,right,271.985660074,right,1
P213,SPC,JR,word_arrow,3,223,nomask,visual_arrow,invalid,right,down,703.420770471,down,1
P213,SPC,JR,word_arrow,3,224,nomask,visual_arrow,valid,left,left,349.407999078,left,1
P213,SPC,JR,word_arrow,3,225,nomask,visual_word,invalid,left,down,511.523774476,down,1
P213,SPC,JR,word_arrow,3,226,nomask,visual_word,invalid,right,left,434.963110019,left,1
P213,SPC,JR,word_arrow,3,227,nomask,visual_arrow,valid,right,right,245.051934035,right,1
P213,SPC,JR,word_arrow,3,228,nomask,visual_word,valid,right,right,429.775138851,right,1
P213,SPC,JR,word_arrow,3,229,nomask,visual_arrow,valid,left,left,228.873453569,left,1
P213,SPC,JR,word_arrow,3,230,nomask,visual_arrow,valid,left,left,367.254133103,left,1
P213,SPC,JR,word_arrow,3,231,nomask,visual_arrow,valid,left,left,340.636333101,left,1
P213,SPC,JR,word_arrow,3,232,nomask,visual_word,valid,left,left,266.418385785,left,1
P213,SPC,JR,word_arrow,3,233,nomask,visual_arrow,invalid,left,up,329.148408375,up,1
P213,SPC,JR,word_arrow,3,234,nomask,visual_word,valid,right,right,334.250916261,right,1
P213,SPC,JR,word_arrow,3,235,nomask,visual_arrow,invalid,left,up,426.608197391,up,1
P213,SPC,JR,word_arrow,3,236,nomask,visual_word,invalid,left,right,441.695501213,right,1
P213,SPC,JR,word_arrow,3,237,nomask,visual_arrow,invalid,left,right,298.116607708,right,1
P213,SPC,JR,word_arrow,3,238,nomask,visual_arrow,valid,left,left,360.192372347,left,1
P213,SPC,JR,word_arrow,3,239,nomask,visual_word,valid,left,left,291.266424465,left,1
P213,SPC,JR,word_arrow,3,240,nomask,visual_arrow,valid,right,right,266.995502752,right,1
P213,SPC,JR,word_arrow,3,241,nomask,visual_word,valid,left,left,387.062400929,left,1
P213,SPC,JR,word_arrow,3,242,nomask,visual_arrow,invalid,right,left,413.150776993,left,1
P213,SPC,JR,word_arrow,3,243,nomask,visual_arrow,invalid,left,right,436.899956781,right,1
P213,SPC,JR,word_arrow,3,244,nomask,visual_arrow,valid,left,left,228.642030619,left,1
P213,SPC,JR,word_arrow,3,245,nomask,visual_arrow,valid,right,right,2062.32671288,right,1
P213,SPC,JR,word_arrow,3,246,nomask,visual_arrow,invalid,right,left,358.535281615,left,1
P213,SPC,JR,word_arrow,3,247,nomask,visual_arrow,valid,left,left,865.241425578,left,1
P213,SPC,JR,word_arrow,3,248,nomask,visual_word,neutral,neutral,left,338.366915821,left,1
P213,SPC,JR,word_arrow,3,249,nomask,visual_word,valid,left,left,302.752428572,left,1
P213,SPC,JR,word_arrow,3,250,nomask,visual_word,valid,left,left,326.822975883,left,1
P213,SPC,JR,word_arrow,3,251,nomask,visual_word,valid,left,left,275.228462182,left,1
P213,SPC,JR,word_arrow,3,252,nomask,visual_word,invalid,left,right,689.629819244,right,1
P213,SPC,JR,word_arrow,3,253,nomask,visual_word,valid,left,left,321.753436932,left,1
P213,SPC,JR,word_arrow,3,254,nomask,visual_arrow,valid,right,right,359.159771469,right,1
P213,SPC,JR,word_arrow,3,255,nomask,visual_word,invalid,left,right,396.858345484,right,1
P213,SPC,JR,word_arrow,3,256,nomask,visual_arrow,invalid,left,up,502.258854453,up,1
P213,SPC,JR,word_arrow,3,257,nomask,visual_arrow,valid,right,right,275.685866596,right,1
P213,SPC,JR,word_arrow,3,258,nomask,visual_arrow,neutral,neutral,right,348.117087851,right,1
P213,SPC,JR,word_arrow,3,259,nomask,visual_word,valid,left,left,350.827905233,left,1
P213,SPC,JR,word_arrow,3,260,nomask,visual_word,neutral,neutral,right,291.583950864,right,1
P213,SPC,JR,word_arrow,3,261,nomask,visual_arrow,valid,left,left,288.311700802,left,1
P213,SPC,JR,word_arrow,3,262,nomask,visual_word,valid,right,right,332.74682716,right,1
P213,SPC,JR,word_arrow,3,263,nomask,visual_word,neutral,neutral,right,370.476129465,right,1
P213,SPC,JR,word_arrow,3,264,nomask,visual_arrow,valid,right,right,238.220316009,right,1
P213,SPC,JR,word_arrow,3,265,nomask,visual_word,valid,left,left,334.290607017,left,1
P213,SPC,JR,word_arrow,3,266,nomask,visual_arrow,invalid,left,up,348.347550491,right,0
P213,SPC,JR,word_arrow,3,267,nomask,visual_arrow,valid,right,right,281.445833272,right,1
P213,SPC,JR,word_arrow,3,268,nomask,visual_arrow,invalid,right,left,440.850471379,left,1
P213,SPC,JR,word_arrow,3,269,nomask,visual_word,valid,left,left,402.916313265,left,1
P213,SPC,JR,word_arrow,3,270,nomask,visual_arrow,valid,right,right,323.3298657,right,1
P213,SPC,JR,word_arrow,3,271,nomask,visual_arrow,valid,left,left,297.060960555,left,1
P213,SPC,JR,word_arrow,3,272,nomask,visual_word,valid,right,right,304.114079103,right,1
P213,SPC,JR,word_arrow,3,273,nomask,visual_arrow,invalid,left,right,380.550549715,right,1
P213,SPC,JR,word_arrow,3,274,nomask,visual_arrow,valid,left,left,519.298689207,left,1
P213,SPC,JR,word_arrow,3,275,nomask,visual_word,valid,left,left,325.730518671,left,1
P213,SPC,JR,word_arrow,3,276,nomask,visual_word,valid,right,right,274.788982584,right,1
P213,SPC,JR,word_arrow,3,277,nomask,visual_word,valid,right,right,1096.49184579,right,1
P213,SPC,JR,word_arrow,3,278,nomask,visual_arrow,valid,left,left,263.295296347,left,1
P213,SPC,JR,word_arrow,3,279,nomask,visual_arrow,invalid,right,up,584.761615144,up,1
P213,SPC,JR,word_arrow,3,280,nomask,visual_word,invalid,left,up,449.444168829,up,1
P213,SPC,JR,word_arrow,3,281,nomask,visual_word,invalid,left,right,551.51097104,right,1
P213,SPC,JR,word_arrow,3,282,nomask,visual_word,valid,left,left,402.27741946,left,1
P213,SPC,JR,word_arrow,3,283,nomask,visual_word,invalid,right,up,530.37050087,up,1
P213,SPC,JR,word_arrow,3,284,nomask,visual_word,valid,left,left,405.7785318,left,1
P213,SPC,JR,word_arrow,3,285,nomask,visual_word,valid,left,left,462.5046812,left,1
P213,SPC,JR,word_arrow,3,286,nomask,visual_arrow,neutral,neutral,left,389.582446427,left,1
P213,SPC,JR,word_arrow,3,287,nomask,visual_word,valid,left,left,590.659539448,left,1
P213,SPC,JR,word_arrow,3,288,nomask,visual_word,invalid,left,down,914.093113272,left,0
P213,SPC,JR,word_arrow,3,289,nomask,visual_arrow,valid,right,right,440.203895443,right,1
P213,SPC,JR,word_arrow,3,290,nomask,visual_arrow,neutral,neutral,left,418.248163536,left,1
P213,SPC,JR,word_arrow,3,291,nomask,visual_word,neutral,neutral,left,476.995982928,left,1
P213,SPC,JR,word_arrow,3,292,nomask,visual_word,valid,left,left,410.421714652,left,1
P213,SPC,JR,word_arrow,3,293,nomask,visual_arrow,valid,left,left,388.850087184,left,1
P213,SPC,JR,word_arrow,3,294,nomask,visual_word,neutral,neutral,right,397.915272973,right,1
P213,SPC,JR,word_arrow,3,295,nomask,visual_arrow,neutral,neutral,right,361.633084249,right,1
P213,SPC,JR,word_arrow,3,296,nomask,visual_arrow,valid,right,right,404.388713767,right,1
P213,SPC,JR,word_arrow,3,297,nomask,visual_word,valid,left,left,396.485124016,left,1
P213,SPC,JR,word_arrow,3,298,nomask,visual_word,valid,right,right,398.553526495,right,1
P213,SPC,JR,word_arrow,3,299,nomask,visual_arrow,valid,right,right,377.961045364,right,1
P213,SPC,JR,word_arrow,3,300,nomask,visual_word,valid,right,right,430.36377884,right,1
P213,SPC,JR,word_arrow,3,301,nomask,visual_arrow,valid,left,left,287.774594617,left,1
P213,SPC,JR,word_arrow,3,302,nomask,visual_arrow,valid,left,left,440.168045694,left,1
