subj_id,sona_experiment_code,experimenter,cue_contrast,block,trial,mask_type,cue_type,cue_validity,cue_dir,target_loc,rt,response_type,is_correct
SPC239,SPC,SK,visual_auditory,0,0,nomask,auditory_word,valid,left,left,732.525967062,left,1
SPC239,SPC,SK,visual_auditory,0,1,nomask,visual_word,valid,left,left,2116.61635968,timeout,0
SPC239,SPC,SK,visual_auditory,0,2,nomask,visual_word,valid,left,left,734.900692943,left,1
SPC239,SPC,SK,visual_auditory,0,3,nomask,auditory_word,invalid,right,down,629.322535708,down,1
SPC239,SPC,SK,visual_auditory,0,4,nomask,auditory_word,valid,left,left,272.127458593,left,1
SPC239,SPC,SK,visual_auditory,0,5,nomask,auditory_word,invalid,left,up,481.179520837,up,1
SPC239,SPC,SK,visual_auditory,0,6,nomask,auditory_word,neutral,neutral,right,593.256405788,right,1
SPC239,SPC,SK,visual_auditory,0,7,nomask,auditory_word,neutral,neutral,left,395.697389613,left,1
SPC239,SPC,SK,visual_auditory,0,8,nomask,auditory_word,invalid,right,down,614.110718132,down,1
SPC239,SPC,SK,visual_auditory,0,9,nomask,visual_word,valid,right,right,565.881919814,right,1
SPC239,SPC,SK,visual_auditory,0,10,nomask,visual_word,valid,left,left,497.012627427,left,1
SPC239,SPC,SK,visual_auditory,0,11,nomask,auditory_word,valid,right,right,431.116943713,right,1
SPC239,SPC,SK,visual_auditory,0,12,nomask,auditory_word,valid,left,left,456.847142428,left,1
SPC239,SPC,SK,visual_auditory,0,13,nomask,auditory_word,valid,left,left,407.899428625,left,1
SPC239,SPC,SK,visual_auditory,0,14,nomask,visual_word,invalid,left,down,584.333978826,down,1
SPC239,SPC,SK,visual_auditory,1,15,nomask,auditory_word,invalid,right,left,479.87292544,left,1
SPC239,SPC,SK,visual_auditory,1,16,nomask,visual_word,valid,left,left,415.312965168,left,1
SPC239,SPC,SK,visual_auditory,1,17,nomask,visual_word,valid,right,right,545.420034206,right,1
SPC239,SPC,SK,visual_auditory,1,18,nomask,visual_word,invalid,left,right,478.174223332,right,1
SPC239,SPC,SK,visual_auditory,1,19,nomask,visual_word,valid,right,right,374.582206365,right,1
SPC239,SPC,SK,visual_auditory,1,20,nomask,auditory_word,invalid,left,down,631.659491453,down,1
SPC239,SPC,SK,visual_auditory,1,21,nomask,auditory_word,valid,left,left,335.433317814,left,1
SPC239,SPC,SK,visual_auditory,1,22,nomask,visual_word,valid,left,left,444.203063264,left,1
SPC239,SPC,SK,visual_auditory,1,23,nomask,auditory_word,valid,left,left,546.947489725,left,1
SPC239,SPC,SK,visual_auditory,1,24,nomask,auditory_word,invalid,right,up,496.700862655,up,1
SPC239,SPC,SK,visual_auditory,1,25,nomask,auditory_word,valid,right,right,392.082966515,right,1
SPC239,SPC,SK,visual_auditory,1,26,nomask,visual_word,valid,right,right,385.523742414,right,1
SPC239,SPC,SK,visual_auditory,1,27,nomask,visual_word,valid,left,left,403.278651764,left,1
SPC239,SPC,SK,visual_auditory,1,28,nomask,visual_word,valid,left,left,307.371605071,left,1
SPC239,SPC,SK,visual_auditory,1,29,nomask,visual_word,invalid,right,left,409.121841076,left,1
SPC239,SPC,SK,visual_auditory,1,30,nomask,visual_word,valid,right,right,458.507754141,right,1
SPC239,SPC,SK,visual_auditory,1,31,nomask,auditory_word,neutral,neutral,right,417.61439119,right,1
SPC239,SPC,SK,visual_auditory,1,32,nomask,auditory_word,valid,right,right,393.048669212,right,1
SPC239,SPC,SK,visual_auditory,1,33,nomask,auditory_word,valid,right,right,322.473312845,right,1
SPC239,SPC,SK,visual_auditory,1,34,nomask,auditory_word,valid,right,right,279.20970507,right,1
SPC239,SPC,SK,visual_auditory,1,35,nomask,visual_word,valid,right,right,308.956676163,right,1
SPC239,SPC,SK,visual_auditory,1,36,nomask,auditory_word,valid,left,left,354.721764335,left,1
SPC239,SPC,SK,visual_auditory,1,37,nomask,auditory_word,neutral,neutral,right,358.103484148,right,1
SPC239,SPC,SK,visual_auditory,1,38,nomask,auditory_word,invalid,right,left,320.876078331,left,1
SPC239,SPC,SK,visual_auditory,1,39,nomask,auditory_word,valid,right,right,342.642318807,right,1
SPC239,SPC,SK,visual_auditory,1,40,nomask,visual_word,valid,right,right,292.71993984,right,1
SPC239,SPC,SK,visual_auditory,1,41,nomask,visual_word,valid,right,right,592.79516025,right,1
SPC239,SPC,SK,visual_auditory,1,42,nomask,visual_word,valid,left,left,372.181873536,left,1
SPC239,SPC,SK,visual_auditory,1,43,nomask,visual_word,neutral,neutral,left,414.984875941,left,1
SPC239,SPC,SK,visual_auditory,1,44,nomask,auditory_word,valid,left,left,314.052782371,left,1
SPC239,SPC,SK,visual_auditory,1,45,nomask,auditory_word,valid,left,left,248.746699071,left,1
SPC239,SPC,SK,visual_auditory,1,46,nomask,auditory_word,valid,right,right,231.857625302,right,1
SPC239,SPC,SK,visual_auditory,1,47,nomask,auditory_word,invalid,right,left,407.622873434,up,0
SPC239,SPC,SK,visual_auditory,1,48,nomask,visual_word,valid,right,right,593.665156863,right,1
SPC239,SPC,SK,visual_auditory,1,49,nomask,auditory_word,valid,right,right,333.478866261,right,1
SPC239,SPC,SK,visual_auditory,1,50,nomask,visual_word,valid,left,left,296.210489236,left,1
SPC239,SPC,SK,visual_auditory,1,51,nomask,auditory_word,valid,right,right,365.617527976,right,1
SPC239,SPC,SK,visual_auditory,1,52,nomask,auditory_word,valid,right,right,330.034089275,right,1
SPC239,SPC,SK,visual_auditory,1,53,nomask,visual_word,valid,right,right,415.117391967,right,1
SPC239,SPC,SK,visual_auditory,1,54,nomask,auditory_word,valid,left,left,487.208680832,left,1
SPC239,SPC,SK,visual_auditory,1,55,nomask,auditory_word,valid,left,left,286.015716381,left,1
SPC239,SPC,SK,visual_auditory,1,56,nomask,visual_word,neutral,neutral,right,460.388585692,right,1
SPC239,SPC,SK,visual_auditory,1,57,nomask,visual_word,invalid,left,right,445.113390801,right,1
SPC239,SPC,SK,visual_auditory,1,58,nomask,visual_word,valid,left,left,366.905878414,left,1
SPC239,SPC,SK,visual_auditory,1,59,nomask,visual_word,valid,right,right,465.684106108,right,1
SPC239,SPC,SK,visual_auditory,1,60,nomask,auditory_word,valid,right,right,368.403565837,right,1
SPC239,SPC,SK,visual_auditory,1,61,nomask,visual_word,valid,left,left,450.822463725,left,1
SPC239,SPC,SK,visual_auditory,1,62,nomask,auditory_word,valid,left,left,313.555367058,left,1
SPC239,SPC,SK,visual_auditory,1,63,nomask,auditory_word,invalid,right,down,661.959252902,down,1
SPC239,SPC,SK,visual_auditory,1,64,nomask,visual_word,valid,right,right,358.116927906,right,1
SPC239,SPC,SK,visual_auditory,1,65,nomask,visual_word,valid,left,left,320.215738611,left,1
SPC239,SPC,SK,visual_auditory,1,66,nomask,auditory_word,valid,left,left,335.241905879,left,1
SPC239,SPC,SK,visual_auditory,1,67,nomask,auditory_word,valid,right,right,253.334827023,right,1
SPC239,SPC,SK,visual_auditory,1,68,nomask,visual_word,valid,right,right,404.402477434,right,1
SPC239,SPC,SK,visual_auditory,1,69,nomask,auditory_word,valid,right,right,348.845605971,right,1
SPC239,SPC,SK,visual_auditory,1,70,nomask,visual_word,valid,right,right,481.588912196,right,1
SPC239,SPC,SK,visual_auditory,1,71,nomask,auditory_word,valid,right,right,374.3245363,right,1
SPC239,SPC,SK,visual_auditory,1,72,nomask,auditory_word,invalid,right,up,464.705279912,up,1
SPC239,SPC,SK,visual_auditory,1,73,nomask,auditory_word,invalid,right,left,385.477329837,left,1
SPC239,SPC,SK,visual_auditory,1,74,nomask,auditory_word,valid,right,right,379.952306976,right,1
SPC239,SPC,SK,visual_auditory,1,75,nomask,auditory_word,valid,right,right,296.029319987,right,1
SPC239,SPC,SK,visual_auditory,1,76,nomask,visual_word,neutral,neutral,left,468.723332742,left,1
SPC239,SPC,SK,visual_auditory,1,77,nomask,auditory_word,valid,left,left,299.49394241,left,1
SPC239,SPC,SK,visual_auditory,1,78,nomask,visual_word,valid,left,left,393.57905346,left,1
SPC239,SPC,SK,visual_auditory,1,79,nomask,auditory_word,valid,right,right,251.014836016,right,1
SPC239,SPC,SK,visual_auditory,1,80,nomask,auditory_word,invalid,left,right,337.453707471,right,1
SPC239,SPC,SK,visual_auditory,1,81,nomask,auditory_word,neutral,neutral,left,436.144231237,left,1
SPC239,SPC,SK,visual_auditory,1,82,nomask,auditory_word,valid,left,left,363.244402455,left,1
SPC239,SPC,SK,visual_auditory,1,83,nomask,auditory_word,valid,left,left,293.360754033,left,1
SPC239,SPC,SK,visual_auditory,1,84,nomask,visual_word,valid,right,right,443.736056215,right,1
SPC239,SPC,SK,visual_auditory,1,85,nomask,auditory_word,valid,right,right,298.516396433,right,1
SPC239,SPC,SK,visual_auditory,1,86,nomask,auditory_word,valid,left,left,264.924859628,left,1
SPC239,SPC,SK,visual_auditory,1,87,nomask,auditory_word,valid,right,right,295.039610821,right,1
SPC239,SPC,SK,visual_auditory,1,88,nomask,auditory_word,invalid,right,down,669.734487776,down,1
SPC239,SPC,SK,visual_auditory,1,89,nomask,visual_word,invalid,left,up,686.184082064,up,1
SPC239,SPC,SK,visual_auditory,1,90,nomask,visual_word,invalid,right,left,595.963381929,left,1
SPC239,SPC,SK,visual_auditory,1,91,nomask,auditory_word,valid,right,right,448.340508621,right,1
SPC239,SPC,SK,visual_auditory,1,92,nomask,auditory_word,valid,left,left,342.755949707,left,1
SPC239,SPC,SK,visual_auditory,1,93,nomask,auditory_word,invalid,left,up,362.853256054,up,1
SPC239,SPC,SK,visual_auditory,1,94,nomask,auditory_word,valid,right,right,332.629034994,right,1
SPC239,SPC,SK,visual_auditory,2,95,nomask,visual_word,invalid,right,up,441.973016714,up,1
SPC239,SPC,SK,visual_auditory,2,96,nomask,visual_word,valid,right,right,371.767040691,right,1
SPC239,SPC,SK,visual_auditory,2,97,nomask,visual_word,valid,left,left,440.475009149,left,1
SPC239,SPC,SK,visual_auditory,2,98,nomask,auditory_word,valid,right,right,345.236624358,right,1
SPC239,SPC,SK,visual_auditory,2,99,nomask,auditory_word,valid,right,right,271.012275363,right,1
SPC239,SPC,SK,visual_auditory,2,100,nomask,auditory_word,valid,right,right,215.757246013,right,1
SPC239,SPC,SK,visual_auditory,2,101,nomask,auditory_word,valid,left,left,232.151145115,left,1
SPC239,SPC,SK,visual_auditory,2,102,nomask,visual_word,valid,right,right,497.965526534,right,1
SPC239,SPC,SK,visual_auditory,2,103,nomask,auditory_word,valid,left,left,289.667269564,left,1
SPC239,SPC,SK,visual_auditory,2,104,nomask,visual_word,invalid,left,right,438.091960968,right,1
SPC239,SPC,SK,visual_auditory,2,105,nomask,visual_word,invalid,right,left,420.827104943,left,1
SPC239,SPC,SK,visual_auditory,2,106,nomask,auditory_word,neutral,neutral,left,350.889361813,left,1
SPC239,SPC,SK,visual_auditory,2,107,nomask,visual_word,valid,right,right,539.301890065,right,1
SPC239,SPC,SK,visual_auditory,2,108,nomask,auditory_word,valid,right,right,361.787366215,right,1
SPC239,SPC,SK,visual_auditory,2,109,nomask,visual_word,valid,left,left,357.316390029,left,1
SPC239,SPC,SK,visual_auditory,2,110,nomask,auditory_word,valid,left,left,311.926443945,left,1
SPC239,SPC,SK,visual_auditory,2,111,nomask,auditory_word,valid,right,right,286.991021479,right,1
SPC239,SPC,SK,visual_auditory,2,112,nomask,auditory_word,valid,left,left,253.067874466,left,1
SPC239,SPC,SK,visual_auditory,2,113,nomask,visual_word,neutral,neutral,right,531.874589855,right,1
SPC239,SPC,SK,visual_auditory,2,114,nomask,visual_word,valid,right,right,423.307779711,right,1
SPC239,SPC,SK,visual_auditory,2,115,nomask,auditory_word,invalid,left,down,584.95942899,down,1
SPC239,SPC,SK,visual_auditory,2,116,nomask,auditory_word,valid,right,right,317.788198474,right,1
SPC239,SPC,SK,visual_auditory,2,117,nomask,auditory_word,valid,right,right,290.18965154,right,1
SPC239,SPC,SK,visual_auditory,2,118,nomask,visual_word,invalid,left,right,474.620936904,right,1
SPC239,SPC,SK,visual_auditory,2,119,nomask,auditory_word,valid,left,left,585.015764227,left,1
SPC239,SPC,SK,visual_auditory,2,120,nomask,visual_word,valid,right,right,323.096202104,right,1
SPC239,SPC,SK,visual_auditory,2,121,nomask,visual_word,invalid,right,down,526.534577482,down,1
SPC239,SPC,SK,visual_auditory,2,122,nomask,visual_word,valid,right,right,483.275130857,right,1
SPC239,SPC,SK,visual_auditory,2,123,nomask,auditory_word,valid,left,left,424.729286344,left,1
SPC239,SPC,SK,visual_auditory,2,124,nomask,auditory_word,valid,left,left,216.452475055,left,1
SPC239,SPC,SK,visual_auditory,2,125,nomask,visual_word,invalid,right,left,450.493414188,left,1
SPC239,SPC,SK,visual_auditory,2,126,nomask,auditory_word,valid,right,right,257.929036743,right,1
SPC239,SPC,SK,visual_auditory,2,127,nomask,auditory_word,valid,left,left,273.682761705,left,1
SPC239,SPC,SK,visual_auditory,2,128,nomask,auditory_word,invalid,right,down,553.130611544,down,1
SPC239,SPC,SK,visual_auditory,2,129,nomask,visual_word,valid,left,left,451.863066759,left,1
SPC239,SPC,SK,visual_auditory,2,130,nomask,visual_word,valid,right,right,533.590576611,right,1
SPC239,SPC,SK,visual_auditory,2,131,nomask,visual_word,neutral,neutral,right,953.008338227,right,1
SPC239,SPC,SK,visual_auditory,2,132,nomask,auditory_word,invalid,right,left,422.801401932,left,1
SPC239,SPC,SK,visual_auditory,2,133,nomask,visual_word,valid,right,right,518.582974561,right,1
SPC239,SPC,SK,visual_auditory,2,134,nomask,visual_word,invalid,right,left,436.641006381,left,1
SPC239,SPC,SK,visual_auditory,2,135,nomask,visual_word,neutral,neutral,left,462.39777212,left,1
SPC239,SPC,SK,visual_auditory,2,136,nomask,auditory_word,valid,right,right,325.490773423,right,1
SPC239,SPC,SK,visual_auditory,2,137,nomask,visual_word,invalid,right,down,768.589856452,down,1
SPC239,SPC,SK,visual_auditory,2,138,nomask,visual_word,invalid,right,left,469.99727923,left,1
SPC239,SPC,SK,visual_auditory,2,139,nomask,auditory_word,valid,right,right,291.453675483,right,1
SPC239,SPC,SK,visual_auditory,2,140,nomask,auditory_word,valid,left,left,304.495302727,left,1
SPC239,SPC,SK,visual_auditory,2,141,nomask,auditory_word,invalid,left,down,335.274874815,left,0
SPC239,SPC,SK,visual_auditory,2,142,nomask,auditory_word,valid,right,right,666.344445664,right,1
SPC239,SPC,SK,visual_auditory,2,143,nomask,visual_word,neutral,neutral,right,488.503753091,right,1
SPC239,SPC,SK,visual_auditory,2,144,nomask,visual_word,neutral,neutral,right,382.528047659,right,1
SPC239,SPC,SK,visual_auditory,2,145,nomask,visual_word,valid,right,right,375.608085422,right,1
SPC239,SPC,SK,visual_auditory,2,146,nomask,visual_word,valid,right,right,361.371893203,right,1
SPC239,SPC,SK,visual_auditory,2,147,nomask,visual_word,valid,right,right,452.782036737,right,1
SPC239,SPC,SK,visual_auditory,2,148,nomask,visual_word,valid,left,left,444.580445881,left,1
SPC239,SPC,SK,visual_auditory,2,149,nomask,auditory_word,valid,left,left,454.273642506,left,1
SPC239,SPC,SK,visual_auditory,2,150,nomask,visual_word,invalid,right,left,340.379623347,left,1
SPC239,SPC,SK,visual_auditory,2,151,nomask,visual_word,neutral,neutral,left,378.419089946,left,1
SPC239,SPC,SK,visual_auditory,2,152,nomask,visual_word,valid,right,right,357.536289841,right,1
SPC239,SPC,SK,visual_auditory,2,153,nomask,auditory_word,valid,right,right,569.599090959,right,1
SPC239,SPC,SK,visual_auditory,2,154,nomask,visual_word,invalid,left,down,667.064641602,down,1
SPC239,SPC,SK,visual_auditory,2,155,nomask,visual_word,valid,right,right,378.47030384,right,1
SPC239,SPC,SK,visual_auditory,2,156,nomask,visual_word,valid,right,right,339.247475262,right,1
SPC239,SPC,SK,visual_auditory,2,157,nomask,auditory_word,invalid,left,down,1032.9664069,down,1
SPC239,SPC,SK,visual_auditory,2,158,nomask,visual_word,valid,right,right,456.128226826,right,1
SPC239,SPC,SK,visual_auditory,2,159,nomask,visual_word,valid,left,left,352.831970318,left,1
SPC239,SPC,SK,visual_auditory,2,160,nomask,visual_word,valid,right,right,428.916985402,right,1
SPC239,SPC,SK,visual_auditory,2,161,nomask,auditory_word,neutral,neutral,left,438.989485148,left,1
SPC239,SPC,SK,visual_auditory,2,162,nomask,auditory_word,valid,left,left,366.130307433,left,1
SPC239,SPC,SK,visual_auditory,2,163,nomask,auditory_word,valid,right,right,274.520109524,right,1
SPC239,SPC,SK,visual_auditory,2,164,nomask,visual_word,valid,right,right,514.22979054,right,1
SPC239,SPC,SK,visual_auditory,2,165,nomask,visual_word,invalid,right,up,984.334298992,up,1
SPC239,SPC,SK,visual_auditory,2,166,nomask,visual_word,valid,left,left,420.810460462,left,1
SPC239,SPC,SK,visual_auditory,2,167,nomask,visual_word,valid,left,left,436.199286254,left,1
SPC239,SPC,SK,visual_auditory,2,168,nomask,visual_word,invalid,left,right,404.970631935,right,1
SPC239,SPC,SK,visual_auditory,2,169,nomask,auditory_word,valid,right,right,320.374822011,right,1
SPC239,SPC,SK,visual_auditory,2,170,nomask,auditory_word,valid,right,right,398.782388773,right,1
SPC239,SPC,SK,visual_auditory,2,171,nomask,visual_word,valid,left,left,361.192004289,left,1
SPC239,SPC,SK,visual_auditory,2,172,nomask,visual_word,valid,right,right,326.650768984,right,1
SPC239,SPC,SK,visual_auditory,2,173,nomask,auditory_word,valid,left,left,228.068114491,left,1
SPC239,SPC,SK,visual_auditory,2,174,nomask,auditory_word,valid,left,left,1588.74797949,left,1
SPC239,SPC,SK,visual_auditory,2,175,nomask,auditory_word,invalid,left,right,393.585775397,right,1
SPC239,SPC,SK,visual_auditory,2,176,nomask,auditory_word,valid,right,right,349.325736635,right,1
SPC239,SPC,SK,visual_auditory,2,177,nomask,visual_word,invalid,right,up,1103.74725924,up,1
SPC239,SPC,SK,visual_auditory,2,178,nomask,visual_word,invalid,left,up,493.902021321,up,1
SPC239,SPC,SK,visual_auditory,2,179,nomask,visual_word,valid,right,right,339.285885682,right,1
SPC239,SPC,SK,visual_auditory,2,180,nomask,auditory_word,valid,right,right,342.368644313,right,1
SPC239,SPC,SK,visual_auditory,2,181,nomask,visual_word,invalid,left,up,474.424723536,up,1
SPC239,SPC,SK,visual_auditory,2,182,nomask,visual_word,valid,left,left,344.906294486,left,1
SPC239,SPC,SK,visual_auditory,2,183,nomask,visual_word,valid,right,right,451.645087451,right,1
SPC239,SPC,SK,visual_auditory,2,184,nomask,visual_word,valid,right,right,397.723860806,right,1
SPC239,SPC,SK,visual_auditory,2,185,nomask,visual_word,invalid,left,up,575.456684222,up,1
SPC239,SPC,SK,visual_auditory,2,186,nomask,visual_word,neutral,neutral,left,474.863242707,left,1
SPC239,SPC,SK,visual_auditory,2,187,nomask,auditory_word,invalid,right,down,784.018052858,down,1
SPC239,SPC,SK,visual_auditory,2,188,nomask,auditory_word,invalid,left,up,434.774258523,up,1
SPC239,SPC,SK,visual_auditory,2,189,nomask,auditory_word,neutral,neutral,right,397.467471194,right,1
SPC239,SPC,SK,visual_auditory,2,190,nomask,visual_word,invalid,left,right,405.90304567,right,1
SPC239,SPC,SK,visual_auditory,2,191,nomask,visual_word,valid,left,left,481.345325941,left,1
SPC239,SPC,SK,visual_auditory,2,192,nomask,auditory_word,valid,left,left,409.743130091,left,1
SPC239,SPC,SK,visual_auditory,2,193,nomask,auditory_word,valid,right,right,205.542627606,right,1
SPC239,SPC,SK,visual_auditory,2,194,nomask,visual_word,valid,left,left,392.895987723,left,1
SPC239,SPC,SK,visual_auditory,2,195,nomask,visual_word,invalid,right,left,417.994974647,left,1
SPC239,SPC,SK,visual_auditory,2,196,nomask,auditory_word,invalid,left,up,706.120064715,up,1
SPC239,SPC,SK,visual_auditory,3,197,nomask,visual_word,valid,right,right,390.683545964,right,1
SPC239,SPC,SK,visual_auditory,3,198,nomask,visual_word,valid,right,right,296.787286177,right,1
SPC239,SPC,SK,visual_auditory,3,199,nomask,visual_word,valid,left,left,589.518108871,left,1
SPC239,SPC,SK,visual_auditory,3,200,nomask,visual_word,valid,right,right,536.578909494,right,1
SPC239,SPC,SK,visual_auditory,3,201,nomask,visual_word,valid,left,left,388.04858923,left,1
SPC239,SPC,SK,visual_auditory,3,202,nomask,visual_word,valid,left,left,316.446393495,left,1
SPC239,SPC,SK,visual_auditory,3,203,nomask,visual_word,invalid,left,up,418.880335521,up,1
SPC239,SPC,SK,visual_auditory,3,204,nomask,auditory_word,valid,left,left,314.956708229,left,1
SPC239,SPC,SK,visual_auditory,3,205,nomask,auditory_word,valid,left,left,314.018212957,left,1
SPC239,SPC,SK,visual_auditory,3,206,nomask,auditory_word,invalid,right,down,600.12547404,down,1
SPC239,SPC,SK,visual_auditory,3,207,nomask,visual_word,valid,right,right,369.852919946,right,1
SPC239,SPC,SK,visual_auditory,3,208,nomask,visual_word,invalid,left,right,388.644591323,right,1
SPC239,SPC,SK,visual_auditory,3,209,nomask,visual_word,valid,left,left,381.018196931,left,1
SPC239,SPC,SK,visual_auditory,3,210,nomask,visual_word,valid,right,right,361.784485402,right,1
SPC239,SPC,SK,visual_auditory,3,211,nomask,visual_word,valid,left,left,299.843157409,left,1
SPC239,SPC,SK,visual_auditory,3,212,nomask,auditory_word,invalid,left,up,505.253909039,up,1
SPC239,SPC,SK,visual_auditory,3,213,nomask,visual_word,invalid,right,left,406.01475595,left,1
SPC239,SPC,SK,visual_auditory,3,214,nomask,visual_word,valid,left,left,369.127922808,left,1
SPC239,SPC,SK,visual_auditory,3,215,nomask,visual_word,invalid,left,right,379.550597863,right,1
SPC239,SPC,SK,visual_auditory,3,216,nomask,auditory_word,valid,right,right,391.281788587,right,1
SPC239,SPC,SK,visual_auditory,3,217,nomask,auditory_word,neutral,neutral,left,330.684826244,left,1
SPC239,SPC,SK,visual_auditory,3,218,nomask,visual_word,invalid,left,right,487.453547423,right,1
SPC239,SPC,SK,visual_auditory,3,219,nomask,auditory_word,neutral,neutral,right,294.564281474,right,1
SPC239,SPC,SK,visual_auditory,3,220,nomask,auditory_word,valid,right,right,366.982059204,right,1
SPC239,SPC,SK,visual_auditory,3,221,nomask,auditory_word,valid,left,left,250.043371809,left,1
SPC239,SPC,SK,visual_auditory,3,222,nomask,auditory_word,valid,left,left,283.454699675,left,1
SPC239,SPC,SK,visual_auditory,3,223,nomask,visual_word,valid,left,left,376.186162583,left,1
SPC239,SPC,SK,visual_auditory,3,224,nomask,auditory_word,invalid,left,right,345.632892102,right,1
SPC239,SPC,SK,visual_auditory,3,225,nomask,visual_word,invalid,left,up,492.386409198,up,1
SPC239,SPC,SK,visual_auditory,3,226,nomask,visual_word,valid,left,left,308.46022116,left,1
SPC239,SPC,SK,visual_auditory,3,227,nomask,auditory_word,valid,right,right,289.517468656,right,1
SPC239,SPC,SK,visual_auditory,3,228,nomask,auditory_word,valid,left,left,286.961573642,left,1
SPC239,SPC,SK,visual_auditory,3,229,nomask,visual_word,valid,left,left,326.699422207,left,1
SPC239,SPC,SK,visual_auditory,3,230,nomask,visual_word,valid,right,right,291.161435889,right,1
SPC239,SPC,SK,visual_auditory,3,231,nomask,visual_word,valid,left,left,314.216666855,left,1
SPC239,SPC,SK,visual_auditory,3,232,nomask,auditory_word,valid,left,left,297.615031363,left,1
SPC239,SPC,SK,visual_auditory,3,233,nomask,visual_word,valid,left,left,280.336411437,left,1
SPC239,SPC,SK,visual_auditory,3,234,nomask,visual_word,valid,left,left,326.439511497,left,1
SPC239,SPC,SK,visual_auditory,3,235,nomask,visual_word,valid,left,left,361.544420128,left,1
SPC239,SPC,SK,visual_auditory,3,236,nomask,auditory_word,valid,right,right,285.277595511,right,1
SPC239,SPC,SK,visual_auditory,3,237,nomask,visual_word,neutral,neutral,left,307.022710098,left,1
SPC239,SPC,SK,visual_auditory,3,238,nomask,auditory_word,invalid,left,down,671.751356334,down,1
SPC239,SPC,SK,visual_auditory,3,239,nomask,auditory_word,valid,left,left,262.543731951,left,1
SPC239,SPC,SK,visual_auditory,3,240,nomask,visual_word,valid,right,right,294.961189386,right,1
SPC239,SPC,SK,visual_auditory,3,241,nomask,auditory_word,valid,left,left,325.010002707,left,1
SPC239,SPC,SK,visual_auditory,3,242,nomask,visual_word,valid,left,left,368.777107331,left,1
SPC239,SPC,SK,visual_auditory,3,243,nomask,auditory_word,invalid,right,up,443.189667654,up,1
SPC239,SPC,SK,visual_auditory,3,244,nomask,auditory_word,valid,left,left,273.620664841,left,1
SPC239,SPC,SK,visual_auditory,3,245,nomask,visual_word,valid,left,left,361.026519211,left,1
SPC239,SPC,SK,visual_auditory,3,246,nomask,auditory_word,valid,left,left,346.853704192,left,1
SPC239,SPC,SK,visual_auditory,3,247,nomask,visual_word,valid,left,left,445.86463517,left,1
SPC239,SPC,SK,visual_auditory,3,248,nomask,auditory_word,invalid,left,right,374.290927197,right,1
SPC239,SPC,SK,visual_auditory,3,249,nomask,visual_word,valid,left,left,384.299089317,left,1
SPC239,SPC,SK,visual_auditory,3,250,nomask,visual_word,valid,left,left,364.441848244,left,1
SPC239,SPC,SK,visual_auditory,3,251,nomask,auditory_word,invalid,left,right,280.894643278,right,1
SPC239,SPC,SK,visual_auditory,3,252,nomask,auditory_word,valid,left,left,317.95144279,left,1
SPC239,SPC,SK,visual_auditory,3,253,nomask,auditory_word,invalid,right,down,618.650513003,down,1
SPC239,SPC,SK,visual_auditory,3,254,nomask,auditory_word,valid,left,left,285.806699423,left,1
SPC239,SPC,SK,visual_auditory,3,255,nomask,auditory_word,valid,left,left,341.228174046,left,1
SPC239,SPC,SK,visual_auditory,3,256,nomask,auditory_word,valid,left,left,632.604068378,left,1
SPC239,SPC,SK,visual_auditory,3,257,nomask,visual_word,valid,left,left,447.398812394,left,1
SPC239,SPC,SK,visual_auditory,3,258,nomask,auditory_word,valid,left,left,430.823424016,left,1
SPC239,SPC,SK,visual_auditory,3,259,nomask,auditory_word,invalid,left,right,560.550869908,right,1
SPC239,SPC,SK,visual_auditory,3,260,nomask,visual_word,invalid,left,right,386.641486548,down,0
SPC239,SPC,SK,visual_auditory,3,261,nomask,visual_word,valid,right,right,419.765696279,right,1
SPC239,SPC,SK,visual_auditory,3,262,nomask,auditory_word,neutral,neutral,left,372.809564229,left,1
SPC239,SPC,SK,visual_auditory,3,263,nomask,visual_word,invalid,left,right,537.917513633,right,1
SPC239,SPC,SK,visual_auditory,3,264,nomask,auditory_word,valid,right,right,327.339596348,right,1
SPC239,SPC,SK,visual_auditory,3,265,nomask,visual_word,valid,right,right,317.754589254,right,1
SPC239,SPC,SK,visual_auditory,3,266,nomask,visual_word,valid,left,left,417.491157656,left,1
SPC239,SPC,SK,visual_auditory,3,267,nomask,auditory_word,invalid,left,up,523.907943047,up,1
SPC239,SPC,SK,visual_auditory,3,268,nomask,visual_word,valid,right,right,512.016388471,right,1
SPC239,SPC,SK,visual_auditory,3,269,nomask,visual_word,valid,left,left,382.455387968,left,1
SPC239,SPC,SK,visual_auditory,3,270,nomask,visual_word,valid,left,left,440.545108286,left,1
SPC239,SPC,SK,visual_auditory,3,271,nomask,auditory_word,invalid,right,left,426.257702056,left,1
SPC239,SPC,SK,visual_auditory,3,272,nomask,auditory_word,invalid,right,left,371.007153997,left,1
SPC239,SPC,SK,visual_auditory,3,273,nomask,auditory_word,valid,left,left,358.07019507,left,1
SPC239,SPC,SK,visual_auditory,3,274,nomask,visual_word,invalid,right,up,522.845894098,up,1
SPC239,SPC,SK,visual_auditory,3,275,nomask,auditory_word,valid,left,left,280.638253549,left,1
SPC239,SPC,SK,visual_auditory,3,276,nomask,visual_word,invalid,right,left,305.041691405,left,1
SPC239,SPC,SK,visual_auditory,3,277,nomask,auditory_word,valid,left,left,271.768641076,left,1
SPC239,SPC,SK,visual_auditory,3,278,nomask,visual_word,valid,right,right,375.513339648,right,1
SPC239,SPC,SK,visual_auditory,3,279,nomask,auditory_word,invalid,left,down,244.579485618,left,0
SPC239,SPC,SK,visual_auditory,3,280,nomask,auditory_word,invalid,left,down,541.309476132,down,1
SPC239,SPC,SK,visual_auditory,3,281,nomask,visual_word,valid,left,left,410.409871489,left,1
SPC239,SPC,SK,visual_auditory,3,282,nomask,auditory_word,invalid,right,down,789.827633067,down,1
SPC239,SPC,SK,visual_auditory,3,283,nomask,auditory_word,valid,right,right,288.576092687,right,1
SPC239,SPC,SK,visual_auditory,3,284,nomask,visual_word,valid,left,left,365.701070637,left,1
SPC239,SPC,SK,visual_auditory,3,285,nomask,visual_word,neutral,neutral,right,328.106204979,right,1
SPC239,SPC,SK,visual_auditory,3,286,nomask,visual_word,invalid,right,left,403.177504311,left,1
SPC239,SPC,SK,visual_auditory,3,287,nomask,auditory_word,valid,right,right,293.589936453,right,1
SPC239,SPC,SK,visual_auditory,3,288,nomask,visual_word,valid,left,left,413.706768188,left,1
SPC239,SPC,SK,visual_auditory,3,289,nomask,visual_word,valid,left,left,383.457580465,left,1
SPC239,SPC,SK,visual_auditory,3,290,nomask,auditory_word,neutral,neutral,right,307.209320948,right,1
SPC239,SPC,SK,visual_auditory,3,291,nomask,visual_word,invalid,right,down,686.992301955,down,1
SPC239,SPC,SK,visual_auditory,3,292,nomask,visual_word,valid,right,right,295.352975954,right,1
SPC239,SPC,SK,visual_auditory,3,293,nomask,visual_word,valid,left,left,373.766944627,left,1
SPC239,SPC,SK,visual_auditory,3,294,nomask,auditory_word,invalid,right,left,424.866603687,left,1
SPC239,SPC,SK,visual_auditory,3,295,nomask,auditory_word,valid,right,right,305.296800681,right,1
SPC239,SPC,SK,visual_auditory,3,296,nomask,auditory_word,valid,left,left,375.03032817,left,1
SPC239,SPC,SK,visual_auditory,3,297,nomask,auditory_word,valid,right,right,259.454251616,right,1
SPC239,SPC,SK,visual_auditory,3,298,nomask,auditory_word,valid,left,left,241.544740158,left,1
SPC239,SPC,SK,visual_auditory,3,299,nomask,auditory_word,neutral,neutral,right,392.573019955,right,1
SPC239,SPC,SK,visual_auditory,3,300,nomask,visual_word,valid,right,right,435.364819248,right,1
SPC239,SPC,SK,visual_auditory,3,301,nomask,auditory_word,valid,right,right,323.784389417,right,1
SPC239,SPC,SK,visual_auditory,3,302,nomask,auditory_word,neutral,neutral,left,446.870668791,left,1
