subj_id,sona_experiment_code,experimenter,cue_contrast,block,trial,mask_type,cue_type,cue_validity,cue_dir,target_loc,rt,response_type,is_correct
SPC246a,SPC,SK,visual_auditory,0,0,mask,visual_word,valid,left,left,2116.64484732,timeout,0
SPC246a,SPC,SK,visual_auditory,0,1,mask,visual_word,invalid,right,up,2116.61860032,timeout,0
SPC246a,SPC,SK,visual_auditory,0,2,mask,visual_word,valid,right,right,2116.69190018,timeout,0
SPC246a,SPC,SK,visual_auditory,0,3,mask,visual_word,valid,right,right,354.691035929,right,1
SPC246a,SPC,SK,visual_auditory,0,4,mask,auditory_word,valid,left,left,512.178672594,left,1
SPC246a,SPC,SK,visual_auditory,0,5,mask,auditory_word,valid,right,right,2116.63780548,timeout,0
SPC246a,SPC,SK,visual_auditory,0,6,mask,visual_word,invalid,left,down,2116.62052071,timeout,0
SPC246a,SPC,SK,visual_auditory,0,7,mask,auditory_word,invalid,left,up,2116.62820284,timeout,0
SPC246a,SPC,SK,visual_auditory,0,8,mask,visual_word,valid,left,left,2116.61603954,timeout,0
SPC246a,SPC,SK,visual_auditory,0,9,mask,visual_word,valid,left,left,2116.61571939,timeout,0
SPC246a,SPC,SK,visual_auditory,0,10,mask,visual_word,valid,right,right,2116.63748533,timeout,0
SPC246a,SPC,SK,visual_auditory,0,11,mask,auditory_word,valid,left,left,1064.77089773,left,1
SPC246a,SPC,SK,visual_auditory,0,12,mask,visual_word,valid,left,left,1280.18437012,left,1
SPC246a,SPC,SK,visual_auditory,0,13,mask,auditory_word,valid,right,right,134.696477442,right,1
SPC246a,SPC,SK,visual_auditory,0,14,mask,visual_word,valid,right,right,2116.64356699,timeout,0
SPC246a,SPC,SK,visual_auditory,1,15,mask,visual_word,invalid,left,right,2116.62980332,timeout,0
SPC246a,SPC,SK,visual_auditory,1,16,mask,visual_word,valid,left,left,277.501400327,left,1
SPC246a,SPC,SK,visual_auditory,1,17,mask,auditory_word,valid,left,left,636.907638866,left,1
SPC246a,SPC,SK,visual_auditory,1,18,mask,auditory_word,valid,right,right,2116.70662416,timeout,0
SPC246a,SPC,SK,visual_auditory,1,19,mask,visual_word,valid,left,left,2116.60931772,timeout,0
SPC246a,SPC,SK,visual_auditory,1,20,mask,auditory_word,valid,left,left,2116.61571939,timeout,0
SPC246a,SPC,SK,visual_auditory,1,21,mask,auditory_word,valid,left,left,2116.58659158,timeout,0
SPC246a,SPC,SK,visual_auditory,1,22,mask,auditory_word,valid,left,left,2116.61155836,timeout,0
SPC246a,SPC,SK,visual_auditory,1,23,mask,auditory_word,valid,right,right,2116.64612778,timeout,0
SPC246a,SPC,SK,visual_auditory,1,24,mask,auditory_word,valid,right,right,2116.61379901,timeout,0
SPC246a,SPC,SK,visual_auditory,1,25,mask,visual_word,valid,left,left,2116.63204385,timeout,0
SPC246a,SPC,SK,visual_auditory,1,26,mask,auditory_word,invalid,left,right,2116.59811472,timeout,0
SPC246a,SPC,SK,visual_auditory,1,27,mask,visual_word,valid,right,right,2116.60835741,timeout,0
SPC246a,SPC,SK,visual_auditory,1,28,mask,visual_word,invalid,right,left,2116.60771735,timeout,0
SPC246a,SPC,SK,visual_auditory,1,29,mask,auditory_word,neutral,neutral,left,2116.63236399,timeout,0
SPC246a,SPC,SK,visual_auditory,1,30,mask,visual_word,valid,left,left,2116.63588497,timeout,0
SPC246a,SPC,SK,visual_auditory,1,31,mask,visual_word,invalid,right,left,2116.63748545,timeout,0
SPC246a,SPC,SK,visual_auditory,1,32,mask,visual_word,valid,left,left,2116.63204397,timeout,0
SPC246a,SPC,SK,visual_auditory,1,33,mask,visual_word,neutral,neutral,left,2116.62020069,timeout,0
SPC246a,SPC,SK,visual_auditory,1,34,mask,visual_word,valid,right,right,2116.64004612,timeout,0
SPC246a,SPC,SK,visual_auditory,1,35,mask,visual_word,invalid,left,down,2116.64676794,timeout,0
SPC246a,SPC,SK,visual_auditory,1,36,mask,visual_word,valid,right,right,375.0463326,right,1
SPC246a,SPC,SK,visual_auditory,1,37,mask,auditory_word,valid,right,right,139.82331194,right,1
SPC246a,SPC,SK,visual_auditory,1,38,mask,visual_word,valid,left,left,2116.6333243,timeout,0
SPC246a,SPC,SK,visual_auditory,1,39,mask,visual_word,neutral,neutral,right,2116.6659731,timeout,0
SPC246a,SPC,SK,visual_auditory,1,40,mask,auditory_word,valid,right,right,2116.60803738,timeout,0
SPC246a,SPC,SK,visual_auditory,1,41,mask,auditory_word,valid,right,right,2116.6045164,timeout,0
SPC246a,SPC,SK,visual_auditory,1,42,mask,auditory_word,valid,left,left,2116.63780548,timeout,0
SPC246a,SPC,SK,visual_auditory,1,43,mask,auditory_word,valid,left,left,189.947665785,left,1
SPC246a,SPC,SK,visual_auditory,1,44,mask,visual_word,valid,left,left,2116.62596231,timeout,0
SPC246a,SPC,SK,visual_auditory,1,45,mask,auditory_word,invalid,right,down,2116.62148102,timeout,0
SPC246a,SPC,SK,visual_auditory,1,46,mask,visual_word,invalid,left,down,369.666309212,down,1
SPC246a,SPC,SK,visual_auditory,1,47,mask,visual_word,invalid,right,down,2116.61443906,timeout,0
SPC246a,SPC,SK,visual_auditory,1,48,mask,visual_word,valid,left,left,367.579981801,left,1
SPC246a,SPC,SK,visual_auditory,1,49,mask,visual_word,valid,left,left,401.696141344,right,0
SPC246a,SPC,SK,visual_auditory,1,50,mask,visual_word,valid,left,left,2116.61187839,timeout,0
SPC246a,SPC,SK,visual_auditory,1,51,mask,auditory_word,valid,left,left,2116.62404169,timeout,0
SPC246a,SPC,SK,visual_auditory,1,52,mask,visual_word,valid,right,right,364.10703708,right,1
SPC246a,SPC,SK,visual_auditory,1,53,mask,auditory_word,neutral,neutral,right,456.886513159,right,1
SPC246a,SPC,SK,visual_auditory,1,54,mask,visual_word,valid,right,right,401.604596525,right,1
SPC246a,SPC,SK,visual_auditory,1,55,mask,auditory_word,valid,left,left,380.024966784,left,1
SPC246a,SPC,SK,visual_auditory,1,56,mask,visual_word,invalid,right,left,462.739945273,left,1
SPC246a,SPC,SK,visual_auditory,1,57,mask,auditory_word,valid,right,right,2116.60387623,timeout,0
SPC246a,SPC,SK,visual_auditory,1,58,mask,visual_word,neutral,neutral,right,2116.63524481,timeout,0
SPC246a,SPC,SK,visual_auditory,1,59,mask,visual_word,invalid,left,up,359.195941361,right,0
SPC246a,SPC,SK,visual_auditory,1,60,mask,visual_word,invalid,left,up,2116.60611688,timeout,0
SPC246a,SPC,SK,visual_auditory,1,61,mask,auditory_word,valid,left,left,200.797336875,left,1
SPC246a,SPC,SK,visual_auditory,1,62,mask,auditory_word,valid,right,right,346.504809335,right,1
SPC246a,SPC,SK,visual_auditory,1,63,mask,visual_word,valid,left,left,460.937534925,left,1
SPC246a,SPC,SK,visual_auditory,1,64,mask,auditory_word,invalid,right,up,1083.01041881,right,0
SPC246a,SPC,SK,visual_auditory,1,65,mask,visual_word,valid,left,left,243.847766658,left,1
SPC246a,SPC,SK,visual_auditory,1,66,mask,visual_word,invalid,left,up,610.214938526,up,1
SPC246a,SPC,SK,visual_auditory,1,67,mask,visual_word,valid,left,left,476.984779816,left,1
SPC246a,SPC,SK,visual_auditory,1,68,mask,visual_word,invalid,left,right,372.390570235,right,1
SPC246a,SPC,SK,visual_auditory,1,69,mask,auditory_word,valid,right,right,280.828385265,right,1
SPC246a,SPC,SK,visual_auditory,1,70,mask,visual_word,valid,left,left,623.569290852,right,0
SPC246a,SPC,SK,visual_auditory,1,71,mask,auditory_word,invalid,left,down,2116.66789372,timeout,0
SPC246a,SPC,SK,visual_auditory,1,72,mask,auditory_word,valid,left,left,1718.46518258,left,1
SPC246a,SPC,SK,visual_auditory,1,73,mask,visual_word,valid,left,left,1010.96330199,left,1
SPC246a,SPC,SK,visual_auditory,1,74,mask,visual_word,invalid,left,down,452.789718751,right,0
SPC246a,SPC,SK,visual_auditory,1,75,mask,auditory_word,invalid,right,down,1542.48515586,down,1
SPC246a,SPC,SK,visual_auditory,1,76,mask,auditory_word,neutral,neutral,left,2116.6528496,timeout,0
SPC246a,SPC,SK,visual_auditory,1,77,mask,auditory_word,valid,left,left,2116.60003522,timeout,0
SPC246a,SPC,SK,visual_auditory,1,78,mask,visual_word,valid,left,left,384.96230985,left,1
SPC246a,SPC,SK,visual_auditory,1,79,mask,visual_word,invalid,right,up,437.047196901,up,1
SPC246a,SPC,SK,visual_auditory,1,80,mask,visual_word,valid,left,left,446.134148515,left,1
SPC246a,SPC,SK,visual_auditory,1,81,mask,visual_word,neutral,neutral,right,479.900453007,right,1
SPC246a,SPC,SK,visual_auditory,1,82,mask,auditory_word,invalid,left,right,156.97005589,left,0
SPC246a,SPC,SK,visual_auditory,1,83,mask,visual_word,valid,left,left,441.703823395,left,1
SPC246a,SPC,SK,visual_auditory,1,84,mask,auditory_word,valid,left,left,360.129635199,left,1
SPC246a,SPC,SK,visual_auditory,1,85,mask,auditory_word,valid,left,left,909.876286401,left,1
SPC246a,SPC,SK,visual_auditory,1,86,mask,visual_word,valid,right,right,507.009586552,right,1
SPC246a,SPC,SK,visual_auditory,1,87,mask,auditory_word,valid,left,left,286.761839176,left,1
SPC246a,SPC,SK,visual_auditory,1,88,mask,visual_word,valid,right,right,772.146984003,right,1
SPC246a,SPC,SK,visual_auditory,1,89,mask,auditory_word,invalid,right,up,214.932061499,right,0
SPC246a,SPC,SK,visual_auditory,1,90,mask,visual_word,invalid,left,down,398.355392623,down,1
SPC246a,SPC,SK,visual_auditory,1,91,mask,visual_word,valid,right,right,2116.61539937,timeout,0
SPC246a,SPC,SK,visual_auditory,1,92,mask,auditory_word,valid,right,right,265.630331472,right,1
SPC246a,SPC,SK,visual_auditory,1,93,mask,visual_word,valid,right,right,1000.33097004,right,1
SPC246a,SPC,SK,visual_auditory,1,94,mask,auditory_word,valid,left,left,340.460285195,left,1
SPC246a,SPC,SK,visual_auditory,1,95,mask,auditory_word,valid,left,left,233.241681824,left,1
SPC246a,SPC,SK,visual_auditory,1,96,mask,auditory_word,valid,left,left,127.934318152,left,1
SPC246a,SPC,SK,visual_auditory,1,97,mask,auditory_word,valid,right,right,709.388153511,right,1
SPC246a,SPC,SK,visual_auditory,1,98,mask,auditory_word,valid,left,left,121.782884933,left,1
SPC246a,SPC,SK,visual_auditory,1,99,mask,auditory_word,valid,left,left,933.860730147,down,0
SPC246a,SPC,SK,visual_auditory,1,100,mask,auditory_word,valid,right,right,2116.63748533,timeout,0
SPC246a,SPC,SK,visual_auditory,1,101,mask,visual_word,valid,right,right,382.478754269,right,1
SPC246a,SPC,SK,visual_auditory,1,102,mask,auditory_word,valid,left,left,417.875902262,left,1
SPC246a,SPC,SK,visual_auditory,2,103,mask,visual_word,valid,right,right,645.469647832,right,1
SPC246a,SPC,SK,visual_auditory,2,104,mask,visual_word,valid,left,left,371.580429841,left,1
SPC246a,SPC,SK,visual_auditory,2,105,mask,auditory_word,valid,right,right,293.334186892,right,1
SPC246a,SPC,SK,visual_auditory,2,106,mask,auditory_word,valid,left,left,509.743770235,left,1
SPC246a,SPC,SK,visual_auditory,2,107,mask,auditory_word,valid,left,left,634.838596103,left,1
SPC246a,SPC,SK,visual_auditory,2,108,mask,auditory_word,invalid,right,up,172.918713884,right,0
SPC246a,SPC,SK,visual_auditory,2,109,mask,auditory_word,invalid,left,up,303.99436655,left,0
SPC246a,SPC,SK,visual_auditory,2,110,mask,auditory_word,invalid,left,right,372.75290885,right,1
SPC246a,SPC,SK,visual_auditory,2,111,mask,visual_word,invalid,right,left,535.515260184,up,0
SPC246a,SPC,SK,visual_auditory,2,112,mask,auditory_word,invalid,left,right,347.273658379,right,1
SPC246a,SPC,SK,visual_auditory,2,113,mask,visual_word,valid,right,right,607.00638569,up,0
SPC246a,SPC,SK,visual_auditory,2,114,mask,visual_word,valid,right,right,495.107469265,right,1
SPC246a,SPC,SK,visual_auditory,2,115,mask,visual_word,valid,left,left,358.519917354,down,0
SPC246a,SPC,SK,visual_auditory,2,116,mask,auditory_word,valid,left,left,120.290638995,left,1
SPC246a,SPC,SK,visual_auditory,2,117,mask,auditory_word,valid,left,left,725.01992539,left,1
SPC246a,SPC,SK,visual_auditory,2,118,mask,auditory_word,valid,right,right,162.399692694,right,1
SPC246a,SPC,SK,visual_auditory,2,119,mask,auditory_word,valid,right,right,175.527103362,right,1
SPC246a,SPC,SK,visual_auditory,2,120,mask,auditory_word,neutral,neutral,right,489.590768702,right,1
SPC246a,SPC,SK,visual_auditory,2,121,mask,visual_word,valid,left,left,281.72622947,left,1
SPC246a,SPC,SK,visual_auditory,2,122,mask,auditory_word,invalid,left,down,367.800521781,left,0
SPC246a,SPC,SK,visual_auditory,2,123,mask,visual_word,invalid,left,up,2116.57858931,timeout,0
SPC246a,SPC,SK,visual_auditory,2,124,mask,visual_word,valid,left,left,814.135044813,right,0
SPC246a,SPC,SK,visual_auditory,2,125,mask,visual_word,invalid,left,right,2116.64420727,timeout,0
SPC246a,SPC,SK,visual_auditory,2,126,mask,auditory_word,valid,right,right,151.394779328,right,1
SPC246a,SPC,SK,visual_auditory,2,127,mask,visual_word,valid,left,left,186.463518068,right,0
SPC246a,SPC,SK,visual_auditory,2,128,mask,auditory_word,valid,right,right,125.866555725,right,1
SPC246a,SPC,SK,visual_auditory,2,129,mask,auditory_word,valid,left,left,2116.61251856,timeout,0
SPC246a,SPC,SK,visual_auditory,2,130,mask,visual_word,valid,right,right,495.485172025,right,1
SPC246a,SPC,SK,visual_auditory,2,131,mask,visual_word,invalid,left,right,469.638141571,right,1
SPC246a,SPC,SK,visual_auditory,2,132,mask,auditory_word,valid,left,left,429.962389753,left,1
SPC246a,SPC,SK,visual_auditory,2,133,mask,visual_word,invalid,right,left,576.762639452,right,0
SPC246a,SPC,SK,visual_auditory,2,134,mask,visual_word,invalid,right,down,2116.6080375,timeout,0
SPC246a,SPC,SK,visual_auditory,2,135,mask,auditory_word,valid,left,left,164.74144964,left,1
SPC246a,SPC,SK,visual_auditory,2,136,mask,visual_word,valid,left,left,640.101787634,left,1
SPC246a,SPC,SK,visual_auditory,2,137,mask,visual_word,valid,left,left,952.900789096,left,1
SPC246a,SPC,SK,visual_auditory,2,138,mask,auditory_word,valid,right,right,675.321287359,right,1
SPC246a,SPC,SK,visual_auditory,2,139,mask,visual_word,valid,left,left,618.047788972,left,1
SPC246a,SPC,SK,visual_auditory,2,140,mask,visual_word,valid,right,right,2116.40638253,timeout,0
SPC246a,SPC,SK,visual_auditory,2,141,mask,auditory_word,valid,right,right,338.675159612,right,1
SPC246a,SPC,SK,visual_auditory,2,142,mask,visual_word,valid,right,right,422.416977468,right,1
SPC246a,SPC,SK,visual_auditory,2,143,mask,auditory_word,valid,right,right,391.203367384,right,1
SPC246a,SPC,SK,visual_auditory,2,144,mask,auditory_word,valid,left,left,435.268793139,left,1
SPC246a,SPC,SK,visual_auditory,2,145,mask,visual_word,invalid,right,left,682.024870766,left,1
SPC246a,SPC,SK,visual_auditory,2,146,mask,visual_word,valid,left,left,897.724821232,left,1
SPC246a,SPC,SK,visual_auditory,2,147,mask,visual_word,valid,right,right,406.883472227,right,1
SPC246a,SPC,SK,visual_auditory,2,148,mask,visual_word,invalid,right,up,898.63194793,right,0
SPC246a,SPC,SK,visual_auditory,2,149,mask,visual_word,invalid,right,left,434.757934068,left,1
SPC246a,SPC,SK,visual_auditory,2,150,mask,visual_word,neutral,neutral,right,355.495734839,right,1
SPC246a,SPC,SK,visual_auditory,2,151,mask,visual_word,invalid,left,right,440.555991256,right,1
SPC246a,SPC,SK,visual_auditory,2,152,mask,auditory_word,valid,left,left,170.671702712,left,1
SPC246a,SPC,SK,visual_auditory,2,153,mask,visual_word,valid,right,right,772.06216089,right,1
SPC246a,SPC,SK,visual_auditory,2,154,mask,visual_word,invalid,right,left,1049.15897117,right,0
SPC246a,SPC,SK,visual_auditory,2,155,mask,visual_word,neutral,neutral,left,753.603700199,left,1
SPC246a,SPC,SK,visual_auditory,2,156,mask,visual_word,neutral,neutral,right,525.37778276,right,1
SPC246a,SPC,SK,visual_auditory,2,157,mask,auditory_word,invalid,left,right,418.124609976,left,0
SPC246a,SPC,SK,visual_auditory,2,158,mask,visual_word,valid,right,right,451.198886032,right,1
SPC246a,SPC,SK,visual_auditory,2,159,mask,auditory_word,invalid,right,down,828.016580432,down,1
SPC246a,SPC,SK,visual_auditory,2,160,mask,auditory_word,valid,left,left,491.077253013,left,1
SPC246a,SPC,SK,visual_auditory,2,161,mask,visual_word,valid,left,left,2116.81065254,timeout,0
SPC246a,SPC,SK,visual_auditory,2,162,mask,auditory_word,valid,left,left,395.727797993,left,1
SPC246a,SPC,SK,visual_auditory,2,163,mask,auditory_word,valid,right,right,807.782276883,right,1
SPC246a,SPC,SK,visual_auditory,2,164,mask,visual_word,neutral,neutral,left,457.560616429,left,1
SPC246a,SPC,SK,visual_auditory,2,165,mask,visual_word,valid,left,left,513.320423197,left,1
SPC246a,SPC,SK,visual_auditory,2,166,mask,visual_word,valid,right,right,406.476961798,right,1
SPC246a,SPC,SK,visual_auditory,2,167,mask,visual_word,valid,right,right,568.191347993,right,1
SPC246a,SPC,SK,visual_auditory,2,168,mask,visual_word,valid,left,left,532.574620214,left,1
SPC246a,SPC,SK,visual_auditory,2,169,mask,auditory_word,invalid,left,up,416.67237482,left,0
SPC246a,SPC,SK,visual_auditory,2,170,mask,visual_word,valid,right,right,2116.63300416,timeout,0
SPC246a,SPC,SK,visual_auditory,2,171,mask,visual_word,valid,right,right,442.934558261,left,0
SPC246a,SPC,SK,visual_auditory,2,172,mask,visual_word,invalid,right,down,633.690123679,down,1
SPC246a,SPC,SK,visual_auditory,2,173,mask,visual_word,neutral,neutral,left,889.075108338,down,0
SPC246a,SPC,SK,visual_auditory,2,174,mask,auditory_word,neutral,neutral,left,2116.62436172,timeout,0
SPC246a,SPC,SK,visual_auditory,2,175,mask,auditory_word,invalid,left,right,2116.65252945,timeout,0
SPC246a,SPC,SK,visual_auditory,2,176,mask,visual_word,invalid,left,right,2116.64612778,timeout,0
SPC246a,SPC,SK,visual_auditory,2,177,mask,auditory_word,valid,right,right,278.417169466,right,1
SPC246a,SPC,SK,visual_auditory,2,178,mask,visual_word,neutral,neutral,right,462.826368748,right,1
SPC246a,SPC,SK,visual_auditory,2,179,mask,auditory_word,valid,left,left,120.219579665,left,1
SPC246a,SPC,SK,visual_auditory,2,180,mask,auditory_word,valid,right,right,332.305107033,right,1
SPC246a,SPC,SK,visual_auditory,2,181,mask,auditory_word,valid,left,left,167.048317147,left,1
SPC246a,SPC,SK,visual_auditory,2,182,mask,visual_word,invalid,right,left,2116.61571951,timeout,0
SPC246a,SPC,SK,visual_auditory,2,183,mask,visual_word,valid,right,right,470.995310694,right,1
SPC246a,SPC,SK,visual_auditory,2,184,mask,visual_word,valid,left,left,422.743786359,left,1
SPC246a,SPC,SK,visual_auditory,2,185,mask,visual_word,valid,right,right,469.800105668,right,1
SPC246a,SPC,SK,visual_auditory,2,186,mask,auditory_word,valid,right,right,382.28574174,right,1
SPC246a,SPC,SK,visual_auditory,2,187,mask,visual_word,valid,left,left,793.359153671,left,1
SPC246a,SPC,SK,visual_auditory,2,188,mask,auditory_word,neutral,neutral,right,901.096938411,right,1
SPC246a,SPC,SK,visual_auditory,2,189,mask,auditory_word,invalid,left,right,442.882063915,left,0
SPC246a,SPC,SK,visual_auditory,2,190,mask,auditory_word,valid,left,left,2116.63204385,timeout,0
SPC246a,SPC,SK,visual_auditory,2,191,mask,visual_word,valid,right,right,683.476145496,right,1
SPC246a,SPC,SK,visual_auditory,2,192,mask,auditory_word,valid,right,right,408.876334433,right,1
SPC246a,SPC,SK,visual_auditory,2,193,mask,visual_word,valid,right,right,2116.61699985,timeout,0
SPC246a,SPC,SK,visual_auditory,2,194,mask,auditory_word,invalid,left,right,274.823551998,left,0
SPC246a,SPC,SK,visual_auditory,2,195,mask,auditory_word,valid,left,left,123.969719745,left,1
SPC246a,SPC,SK,visual_auditory,2,196,mask,auditory_word,neutral,neutral,left,567.619672627,left,1
SPC246a,SPC,SK,visual_auditory,2,197,mask,auditory_word,valid,right,right,419.054782833,right,1
SPC246a,SPC,SK,visual_auditory,2,198,mask,visual_word,valid,left,left,434.490981512,left,1
SPC246a,SPC,SK,visual_auditory,2,199,mask,visual_word,neutral,neutral,left,2116.63172382,timeout,0
SPC246a,SPC,SK,visual_auditory,2,200,mask,auditory_word,valid,right,right,307.082246291,right,1
SPC246a,SPC,SK,visual_auditory,2,201,mask,auditory_word,valid,right,right,802.14778427,right,1
SPC246a,SPC,SK,visual_auditory,2,202,mask,auditory_word,valid,right,right,380.937855109,right,1
SPC246a,SPC,SK,visual_auditory,2,203,mask,auditory_word,valid,left,left,752.354720491,right,0
SPC246a,SPC,SK,visual_auditory,2,204,mask,auditory_word,invalid,right,left,172.833250603,right,0
SPC246a,SPC,SK,visual_auditory,2,205,mask,auditory_word,valid,right,right,319.528831751,left,0
SPC246a,SPC,SK,visual_auditory,2,206,mask,visual_word,valid,right,right,548.289934872,right,1
SPC246a,SPC,SK,visual_auditory,2,207,mask,auditory_word,invalid,right,up,670.353536145,up,1
SPC246a,SPC,SK,visual_auditory,2,208,mask,auditory_word,valid,left,left,500.106589054,left,1
SPC246a,SPC,SK,visual_auditory,2,209,mask,auditory_word,valid,right,right,386.897235992,right,1
SPC246a,SPC,SK,visual_auditory,2,210,mask,auditory_word,valid,left,left,277.954963734,left,1
SPC246a,SPC,SK,visual_auditory,2,211,mask,visual_word,valid,right,right,2116.63556495,timeout,0
SPC246a,SPC,SK,visual_auditory,2,212,mask,visual_word,invalid,left,right,395.295680384,right,1
SPC246a,SPC,SK,visual_auditory,3,213,mask,visual_word,valid,right,right,426.126466366,right,1
SPC246a,SPC,SK,visual_auditory,3,214,mask,auditory_word,invalid,right,left,377.200838644,right,0
SPC246a,SPC,SK,visual_auditory,3,215,mask,auditory_word,invalid,right,down,2116.63300416,timeout,0
SPC246a,SPC,SK,visual_auditory,3,216,mask,visual_word,valid,right,right,410.147720133,right,1
SPC246a,SPC,SK,visual_auditory,3,217,mask,auditory_word,invalid,left,down,794.873165549,down,1
SPC246a,SPC,SK,visual_auditory,3,218,mask,visual_word,valid,left,left,475.401629228,left,1
SPC246a,SPC,SK,visual_auditory,3,219,mask,visual_word,valid,left,left,705.081062042,right,0
SPC246a,SPC,SK,visual_auditory,3,220,mask,auditory_word,valid,right,right,348.884016392,right,1
SPC246a,SPC,SK,visual_auditory,3,221,mask,auditory_word,valid,right,right,432.927356334,right,1
SPC246a,SPC,SK,visual_auditory,3,222,mask,visual_word,valid,left,left,739.350543357,left,1
SPC246a,SPC,SK,visual_auditory,3,223,mask,auditory_word,invalid,left,down,462.454427616,left,0
SPC246a,SPC,SK,visual_auditory,3,224,mask,visual_word,valid,right,right,437.567018322,right,1
SPC246a,SPC,SK,visual_auditory,3,225,mask,auditory_word,invalid,right,up,661.957332399,right,0
SPC246a,SPC,SK,visual_auditory,3,226,mask,auditory_word,valid,left,left,2116.63396447,timeout,0
SPC246a,SPC,SK,visual_auditory,3,227,mask,visual_word,valid,right,right,532.55509492,right,1
SPC246a,SPC,SK,visual_auditory,3,228,mask,auditory_word,valid,right,right,275.329609634,right,1
SPC246a,SPC,SK,visual_auditory,3,229,mask,visual_word,valid,left,left,440.716995043,right,0
SPC246a,SPC,SK,visual_auditory,3,230,mask,visual_word,valid,left,left,504.45113075,left,1
SPC246a,SPC,SK,visual_auditory,3,231,mask,visual_word,valid,right,right,478.895699605,right,1
SPC246a,SPC,SK,visual_auditory,3,232,mask,auditory_word,neutral,neutral,right,2116.63172382,timeout,0
SPC246a,SPC,SK,visual_auditory,3,233,mask,auditory_word,valid,left,left,421.509530628,left,1
SPC246a,SPC,SK,visual_auditory,3,234,mask,auditory_word,neutral,neutral,right,423.274810775,right,1
SPC246a,SPC,SK,visual_auditory,3,235,mask,visual_word,valid,right,right,414.353023982,right,1
SPC246a,SPC,SK,visual_auditory,3,236,mask,auditory_word,invalid,left,down,361.44103203,left,0
SPC246a,SPC,SK,visual_auditory,3,237,mask,visual_word,valid,right,right,363.880095421,right,1
SPC246a,SPC,SK,visual_auditory,3,238,mask,auditory_word,valid,right,right,671.249459847,right,1
SPC246a,SPC,SK,visual_auditory,3,239,mask,auditory_word,invalid,right,left,261.712145642,right,0
SPC246a,SPC,SK,visual_auditory,3,240,mask,auditory_word,valid,right,right,331.757117878,right,1
SPC246a,SPC,SK,visual_auditory,3,241,mask,visual_word,valid,left,left,458.551285905,left,1
SPC246a,SPC,SK,visual_auditory,3,242,mask,auditory_word,valid,left,left,131.630683551,left,1
SPC246a,SPC,SK,visual_auditory,3,243,mask,auditory_word,invalid,left,down,719.611734385,left,0
SPC246a,SPC,SK,visual_auditory,3,244,mask,auditory_word,neutral,neutral,right,780.435638502,right,1
SPC246a,SPC,SK,visual_auditory,3,245,mask,auditory_word,invalid,right,left,359.23659231,right,0
SPC246a,SPC,SK,visual_auditory,3,246,mask,visual_word,valid,right,right,428.97972255,right,1
SPC246a,SPC,SK,visual_auditory,3,247,mask,auditory_word,valid,right,right,349.42528361,right,1
SPC246a,SPC,SK,visual_auditory,3,248,mask,auditory_word,valid,right,right,489.116079523,right,1
SPC246a,SPC,SK,visual_auditory,3,249,mask,auditory_word,valid,right,right,238.882896141,right,1
SPC246a,SPC,SK,visual_auditory,3,250,mask,auditory_word,invalid,left,down,215.295360424,left,0
SPC246a,SPC,SK,visual_auditory,3,251,mask,auditory_word,invalid,right,left,905.364339123,left,1
SPC246a,SPC,SK,visual_auditory,3,252,mask,auditory_word,valid,right,right,319.17321519,right,1
SPC246a,SPC,SK,visual_auditory,3,253,mask,visual_word,valid,right,right,2116.67717609,timeout,0
SPC246a,SPC,SK,visual_auditory,3,254,mask,auditory_word,neutral,neutral,left,530.422674958,left,1
SPC246a,SPC,SK,visual_auditory,3,255,mask,visual_word,invalid,right,up,790.527983685,up,1
SPC246a,SPC,SK,visual_auditory,3,256,mask,visual_word,valid,left,left,455.623129499,left,1
SPC246a,SPC,SK,visual_auditory,3,257,mask,visual_word,valid,right,right,519.354384392,right,1
SPC246a,SPC,SK,visual_auditory,3,258,mask,visual_word,valid,left,left,476.435510442,left,1
SPC246a,SPC,SK,visual_auditory,3,259,mask,visual_word,invalid,right,down,428.875054,right,0
SPC246a,SPC,SK,visual_auditory,3,260,mask,visual_word,valid,left,left,508.964998531,left,1
SPC246a,SPC,SK,visual_auditory,3,261,mask,visual_word,valid,right,right,2116.6342845,timeout,0
SPC246a,SPC,SK,visual_auditory,3,262,mask,visual_word,valid,left,left,511.219691834,left,1
SPC246a,SPC,SK,visual_auditory,3,263,mask,visual_word,valid,left,left,131.37397368,left,1
SPC246a,SPC,SK,visual_auditory,3,264,mask,visual_word,valid,right,right,169.414080563,right,1
SPC246a,SPC,SK,visual_auditory,3,265,mask,auditory_word,neutral,neutral,left,770.797496894,left,1
SPC246a,SPC,SK,visual_auditory,3,266,mask,auditory_word,valid,right,right,212.245570845,right,1
SPC246a,SPC,SK,visual_auditory,3,267,mask,visual_word,valid,left,left,348.657074734,left,1
SPC246a,SPC,SK,visual_auditory,3,268,mask,auditory_word,valid,right,right,194.073908147,right,1
SPC246a,SPC,SK,visual_auditory,3,269,mask,auditory_word,valid,left,left,594.793783966,left,1
SPC246a,SPC,SK,visual_auditory,3,270,mask,auditory_word,valid,right,right,676.223612856,right,1
SPC246a,SPC,SK,visual_auditory,3,271,mask,visual_word,invalid,left,down,2116.60995788,timeout,0
SPC246a,SPC,SK,visual_auditory,3,272,mask,visual_word,neutral,neutral,left,2116.62756267,timeout,0
SPC246a,SPC,SK,visual_auditory,3,273,mask,auditory_word,invalid,right,left,358.690843917,right,0
SPC246a,SPC,SK,visual_auditory,3,274,mask,auditory_word,invalid,right,down,722.411856055,down,1
SPC246a,SPC,SK,visual_auditory,3,275,mask,auditory_word,invalid,right,left,465.50453722,left,1
SPC246a,SPC,SK,visual_auditory,3,276,mask,auditory_word,valid,left,left,401.003152831,left,1
SPC246a,SPC,SK,visual_auditory,3,277,mask,auditory_word,valid,left,left,365.026647225,left,1
SPC246a,SPC,SK,visual_auditory,3,278,mask,auditory_word,valid,right,right,344.113758882,right,1
SPC246a,SPC,SK,visual_auditory,3,279,mask,auditory_word,valid,right,right,570.468767546,right,1
SPC246a,SPC,SK,visual_auditory,3,280,mask,visual_word,valid,right,right,2116.61219853,timeout,0
SPC246a,SPC,SK,visual_auditory,3,281,mask,auditory_word,valid,left,left,395.448682015,left,1
SPC246a,SPC,SK,visual_auditory,3,282,mask,visual_word,valid,left,left,428.215034539,left,1
SPC246a,SPC,SK,visual_auditory,3,283,mask,auditory_word,valid,right,right,317.593905493,right,1
SPC246a,SPC,SK,visual_auditory,3,284,mask,auditory_word,valid,right,right,619.003569009,right,1
SPC246a,SPC,SK,visual_auditory,3,285,mask,visual_word,valid,right,right,1099.77593902,right,1
SPC246a,SPC,SK,visual_auditory,3,286,mask,auditory_word,invalid,left,right,329.566762201,left,0
SPC246a,SPC,SK,visual_auditory,3,287,mask,visual_word,invalid,left,right,780.345693929,left,0
SPC246a,SPC,SK,visual_auditory,3,288,mask,visual_word,valid,right,right,761.07709296,right,1
SPC246a,SPC,SK,visual_auditory,3,289,mask,visual_word,invalid,left,up,462.180433096,left,0
SPC246a,SPC,SK,visual_auditory,3,290,mask,auditory_word,valid,left,left,455.272314022,left,1
SPC246a,SPC,SK,visual_auditory,3,291,mask,visual_word,valid,left,left,607.716658968,left,1
SPC246a,SPC,SK,visual_auditory,3,292,mask,visual_word,valid,right,right,1024.76545621,left,0
SPC246a,SPC,SK,visual_auditory,3,293,mask,auditory_word,valid,left,left,162.240929552,left,1
SPC246a,SPC,SK,visual_auditory,3,294,mask,visual_word,valid,right,right,557.283101021,right,1
SPC246a,SPC,SK,visual_auditory,3,295,mask,auditory_word,valid,right,right,146.733031375,right,1
SPC246a,SPC,SK,visual_auditory,3,296,mask,visual_word,invalid,right,left,2116.64676794,timeout,0
SPC246a,SPC,SK,visual_auditory,3,297,mask,visual_word,valid,right,right,2116.63812562,timeout,0
SPC246a,SPC,SK,visual_auditory,3,298,mask,visual_word,invalid,right,left,531.178400503,left,1
SPC246a,SPC,SK,visual_auditory,3,299,mask,visual_word,valid,right,right,598.589696456,left,0
SPC246a,SPC,SK,visual_auditory,3,300,mask,visual_word,valid,left,left,561.33028178,left,1
SPC246a,SPC,SK,visual_auditory,3,301,mask,auditory_word,invalid,right,left,429.077349021,right,0
SPC246a,SPC,SK,visual_auditory,3,302,mask,auditory_word,valid,left,left,599.516988616,left,1
