subj_id,sona_experiment_code,experimenter,cue_contrast,block,trial,mask_type,cue_type,cue_validity,cue_dir,target_loc,rt,response_type,is_correct
SPC2120,SPC,NS,visual_auditory,0,0,mask,auditory_word,invalid,left,up,2116.68272445,timeout,0
SPC2120,SPC,NS,visual_auditory,0,1,mask,auditory_word,valid,left,left,175.158204045,left,1
SPC2120,SPC,NS,visual_auditory,0,2,mask,auditory_word,valid,left,left,1737.44178377,left,1
SPC2120,SPC,NS,visual_auditory,0,3,mask,auditory_word,valid,left,left,1446.01280999,left,1
SPC2120,SPC,NS,visual_auditory,0,4,mask,auditory_word,valid,left,left,820.307093498,left,1
SPC2120,SPC,NS,visual_auditory,0,5,mask,auditory_word,valid,right,right,286.602029984,right,1
SPC2120,SPC,NS,visual_auditory,0,6,mask,visual_word,valid,left,left,418.871813919,left,1
SPC2120,SPC,NS,visual_auditory,0,7,mask,visual_word,valid,left,left,2116.7160137,timeout,0
SPC2120,SPC,NS,visual_auditory,0,8,mask,auditory_word,valid,left,left,619.733813917,left,1
SPC2120,SPC,NS,visual_auditory,0,9,mask,visual_word,valid,left,left,422.967994295,left,1
SPC2120,SPC,NS,visual_auditory,0,10,mask,visual_word,neutral,neutral,right,310.969133803,left,0
SPC2120,SPC,NS,visual_auditory,0,11,mask,visual_word,invalid,left,down,213.241766498,left,0
SPC2120,SPC,NS,visual_auditory,0,12,mask,auditory_word,invalid,right,down,607.207446534,right,0
SPC2120,SPC,NS,visual_auditory,0,13,mask,auditory_word,invalid,right,up,433.859986602,right,0
SPC2120,SPC,NS,visual_auditory,0,14,mask,visual_word,valid,right,right,970.442331163,right,1
SPC2120,SPC,NS,visual_auditory,1,15,mask,auditory_word,valid,left,left,243.98760614,left,1
SPC2120,SPC,NS,visual_auditory,1,16,mask,auditory_word,valid,right,right,251.952383551,right,1
SPC2120,SPC,NS,visual_auditory,1,17,mask,auditory_word,valid,right,right,306.56310718,right,1
SPC2120,SPC,NS,visual_auditory,1,18,mask,auditory_word,valid,right,right,362.204517762,right,1
SPC2120,SPC,NS,visual_auditory,1,19,mask,visual_word,valid,left,left,891.801877646,left,1
SPC2120,SPC,NS,visual_auditory,1,20,mask,visual_word,valid,right,right,315.772711125,right,1
SPC2120,SPC,NS,visual_auditory,1,21,mask,auditory_word,invalid,left,right,175.38706772,left,0
SPC2120,SPC,NS,visual_auditory,1,22,mask,visual_word,valid,right,right,305.014195968,right,1
SPC2120,SPC,NS,visual_auditory,1,23,mask,auditory_word,valid,right,right,406.617202214,right,1
SPC2120,SPC,NS,visual_auditory,1,24,mask,visual_word,invalid,right,down,656.582792639,down,1
SPC2120,SPC,NS,visual_auditory,1,25,mask,auditory_word,valid,right,right,297.223226982,right,1
SPC2120,SPC,NS,visual_auditory,1,26,mask,auditory_word,invalid,right,left,165.52544228,right,0
SPC2120,SPC,NS,visual_auditory,1,27,mask,visual_word,invalid,left,down,759.48792143,down,1
SPC2120,SPC,NS,visual_auditory,1,28,mask,visual_word,valid,left,left,140.418292431,left,1
SPC2120,SPC,NS,visual_auditory,1,29,mask,auditory_word,valid,right,right,359.071165381,right,1
SPC2120,SPC,NS,visual_auditory,1,30,mask,visual_word,valid,right,right,372.362225666,right,1
SPC2120,SPC,NS,visual_auditory,1,31,mask,auditory_word,valid,left,left,328.96422362,left,1
SPC2120,SPC,NS,visual_auditory,1,32,mask,auditory_word,invalid,right,down,332.239695534,right,0
SPC2120,SPC,NS,visual_auditory,1,33,mask,auditory_word,valid,left,left,337.870063027,left,1
SPC2120,SPC,NS,visual_auditory,1,34,mask,visual_word,neutral,neutral,right,392.19046582,right,1
SPC2120,SPC,NS,visual_auditory,1,35,mask,auditory_word,valid,right,right,313.786558167,right,1
SPC2120,SPC,NS,visual_auditory,1,36,mask,auditory_word,neutral,neutral,left,1703.38206156,down,0
SPC2120,SPC,NS,visual_auditory,1,37,mask,auditory_word,valid,left,left,287.368963531,left,1
SPC2120,SPC,NS,visual_auditory,1,38,mask,visual_word,valid,right,right,877.306001959,right,1
SPC2120,SPC,NS,visual_auditory,1,39,mask,visual_word,valid,left,left,427.564153855,left,1
SPC2120,SPC,NS,visual_auditory,1,40,mask,visual_word,valid,left,left,355.862592172,left,1
SPC2120,SPC,NS,visual_auditory,1,41,mask,auditory_word,valid,right,right,329.842868261,right,1
SPC2120,SPC,NS,visual_auditory,1,42,mask,visual_word,neutral,neutral,right,406.097057392,right,1
SPC2120,SPC,NS,visual_auditory,1,43,mask,visual_word,invalid,left,right,487.04247264,right,1
SPC2120,SPC,NS,visual_auditory,1,44,mask,auditory_word,valid,right,right,311.006264179,right,1
SPC2120,SPC,NS,visual_auditory,1,45,mask,visual_word,valid,right,right,140.665401239,right,1
SPC2120,SPC,NS,visual_auditory,1,46,mask,auditory_word,invalid,right,left,423.935623665,left,1
SPC2120,SPC,NS,visual_auditory,1,47,mask,visual_word,invalid,left,right,407.913563133,right,1
SPC2120,SPC,NS,visual_auditory,1,48,mask,auditory_word,valid,left,left,424.853319186,left,1
SPC2120,SPC,NS,visual_auditory,1,49,mask,auditory_word,valid,right,right,417.811038555,right,1
SPC2120,SPC,NS,visual_auditory,1,50,mask,visual_word,invalid,left,right,410.774839693,right,1
SPC2120,SPC,NS,visual_auditory,1,51,mask,auditory_word,valid,right,right,405.704948294,right,1
SPC2120,SPC,NS,visual_auditory,1,52,mask,visual_word,valid,right,right,334.345561801,right,1
SPC2120,SPC,NS,visual_auditory,1,53,mask,auditory_word,invalid,left,up,786.637559882,left,0
SPC2120,SPC,NS,visual_auditory,1,54,mask,auditory_word,valid,left,left,333.584389882,left,1
SPC2120,SPC,NS,visual_auditory,1,55,mask,visual_word,valid,left,left,396.207904269,left,1
SPC2120,SPC,NS,visual_auditory,1,56,mask,auditory_word,neutral,neutral,right,990.487271687,left,0
SPC2120,SPC,NS,visual_auditory,1,57,mask,auditory_word,valid,left,left,566.756184911,left,1
SPC2120,SPC,NS,visual_auditory,1,58,mask,visual_word,valid,left,left,345.05510336,left,1
SPC2120,SPC,NS,visual_auditory,1,59,mask,visual_word,valid,right,right,886.987097212,right,1
SPC2120,SPC,NS,visual_auditory,1,60,mask,visual_word,invalid,right,down,230.629967409,right,0
SPC2120,SPC,NS,visual_auditory,1,61,mask,visual_word,invalid,right,down,1309.55369974,down,1
SPC2120,SPC,NS,visual_auditory,1,62,mask,auditory_word,valid,left,left,321.536235686,left,1
SPC2120,SPC,NS,visual_auditory,1,63,mask,visual_word,valid,right,right,333.812293306,right,1
SPC2120,SPC,NS,visual_auditory,1,64,mask,auditory_word,valid,left,left,363.101407478,left,1
SPC2120,SPC,NS,visual_auditory,1,65,mask,auditory_word,valid,right,right,384.72790824,right,1
SPC2120,SPC,NS,visual_auditory,1,66,mask,visual_word,valid,left,left,353.99839317,left,1
SPC2120,SPC,NS,visual_auditory,1,67,mask,visual_word,valid,right,right,276.972469175,right,1
SPC2120,SPC,NS,visual_auditory,1,68,mask,auditory_word,valid,left,left,218.099438876,left,1
SPC2120,SPC,NS,visual_auditory,1,69,mask,visual_word,valid,right,right,275.562796684,right,1
SPC2120,SPC,NS,visual_auditory,1,70,mask,auditory_word,neutral,neutral,left,2116.7336186,timeout,0
SPC2120,SPC,NS,visual_auditory,1,71,mask,auditory_word,valid,left,left,461.966051371,left,1
SPC2120,SPC,NS,visual_auditory,1,72,mask,visual_word,valid,left,left,495.383994887,left,1
SPC2120,SPC,NS,visual_auditory,1,73,mask,visual_word,valid,right,right,566.62110734,right,1
SPC2120,SPC,NS,visual_auditory,1,74,mask,auditory_word,invalid,left,right,459.953010897,right,1
SPC2120,SPC,NS,visual_auditory,1,75,mask,auditory_word,invalid,left,up,739.555972395,up,1
SPC2120,SPC,NS,visual_auditory,1,76,mask,visual_word,valid,right,right,413.848655473,right,1
SPC2120,SPC,NS,visual_auditory,1,77,mask,visual_word,valid,left,left,454.123227915,left,1
SPC2120,SPC,NS,visual_auditory,1,78,mask,visual_word,valid,left,left,580.074772821,left,1
SPC2120,SPC,NS,visual_auditory,1,79,mask,auditory_word,neutral,neutral,left,422.676713206,down,0
SPC2120,SPC,NS,visual_auditory,1,80,mask,auditory_word,valid,right,right,512.309667014,right,1
SPC2120,SPC,NS,visual_auditory,1,81,mask,auditory_word,valid,right,right,430.956458265,right,1
SPC2120,SPC,NS,visual_auditory,1,82,mask,auditory_word,invalid,left,right,375.911053619,right,1
SPC2120,SPC,NS,visual_auditory,1,83,mask,auditory_word,valid,right,right,482.175197569,right,1
SPC2120,SPC,NS,visual_auditory,1,84,mask,auditory_word,invalid,left,up,743.778267875,up,1
SPC2120,SPC,NS,visual_auditory,1,85,mask,visual_word,invalid,left,up,621.10091449,right,0
SPC2120,SPC,NS,visual_auditory,1,86,mask,visual_word,valid,right,right,444.371393009,right,1
SPC2120,SPC,NS,visual_auditory,1,87,mask,auditory_word,valid,left,left,332.666694419,left,1
SPC2120,SPC,NS,visual_auditory,1,88,mask,visual_word,valid,left,left,482.965497591,left,1
SPC2120,SPC,NS,visual_auditory,1,89,mask,auditory_word,valid,left,left,434.898035601,left,1
SPC2120,SPC,NS,visual_auditory,1,90,mask,visual_word,valid,left,left,433.542458224,left,1
SPC2120,SPC,NS,visual_auditory,1,91,mask,auditory_word,valid,right,right,356.126345578,right,1
SPC2120,SPC,NS,visual_auditory,1,92,mask,auditory_word,valid,right,right,362.093766918,right,1
SPC2120,SPC,NS,visual_auditory,1,93,mask,visual_word,invalid,right,left,483.734671725,left,1
SPC2120,SPC,NS,visual_auditory,1,94,mask,auditory_word,valid,left,left,417.017537693,left,1
SPC2120,SPC,NS,visual_auditory,1,95,mask,auditory_word,invalid,left,down,537.96865046,left,0
SPC2120,SPC,NS,visual_auditory,1,96,mask,auditory_word,invalid,left,right,452.912650886,left,0
SPC2120,SPC,NS,visual_auditory,1,97,mask,visual_word,valid,right,right,501.252188638,right,1
SPC2120,SPC,NS,visual_auditory,1,98,mask,visual_word,invalid,right,left,682.495926856,right,0
SPC2120,SPC,NS,visual_auditory,1,99,mask,visual_word,valid,right,right,449.766815116,right,1
SPC2120,SPC,NS,visual_auditory,1,100,mask,auditory_word,valid,right,right,441.400645941,right,1
SPC2120,SPC,NS,visual_auditory,1,101,mask,auditory_word,valid,right,right,352.034646494,right,1
SPC2120,SPC,NS,visual_auditory,1,102,mask,visual_word,invalid,left,up,922.979837575,right,0
SPC2120,SPC,NS,visual_auditory,1,103,mask,visual_word,valid,right,right,432.932368363,right,1
SPC2120,SPC,NS,visual_auditory,1,104,mask,visual_word,valid,left,left,472.206662351,left,1
SPC2120,SPC,NS,visual_auditory,1,105,mask,visual_word,neutral,neutral,right,533.819655364,right,1
SPC2120,SPC,NS,visual_auditory,1,106,mask,visual_word,valid,left,left,339.13281461,left,1
SPC2120,SPC,NS,visual_auditory,1,107,mask,visual_word,valid,right,right,448.74925178,right,1
SPC2120,SPC,NS,visual_auditory,1,108,mask,visual_word,valid,left,left,386.032271374,left,1
SPC2120,SPC,NS,visual_auditory,1,109,mask,auditory_word,valid,left,left,524.327092688,left,1
SPC2120,SPC,NS,visual_auditory,1,110,mask,visual_word,valid,right,right,471.93970799,right,1
SPC2120,SPC,NS,visual_auditory,1,111,mask,auditory_word,invalid,right,left,279.565831122,right,0
SPC2120,SPC,NS,visual_auditory,2,112,mask,visual_word,neutral,neutral,left,683.063124772,left,1
SPC2120,SPC,NS,visual_auditory,2,113,mask,visual_word,valid,right,right,408.682097099,right,1
SPC2120,SPC,NS,visual_auditory,2,114,mask,auditory_word,valid,left,left,464.994414477,left,1
SPC2120,SPC,NS,visual_auditory,2,115,mask,visual_word,valid,left,left,366.901505389,left,1
SPC2120,SPC,NS,visual_auditory,2,116,mask,auditory_word,valid,left,left,427.514860115,left,1
SPC2120,SPC,NS,visual_auditory,2,117,mask,visual_word,valid,left,left,381.172038324,left,1
SPC2120,SPC,NS,visual_auditory,2,118,mask,auditory_word,valid,left,left,407.11141983,left,1
SPC2120,SPC,NS,visual_auditory,2,119,mask,auditory_word,valid,left,left,368.046784191,left,1
SPC2120,SPC,NS,visual_auditory,2,120,mask,visual_word,valid,left,left,593.395601376,left,1
SPC2120,SPC,NS,visual_auditory,2,121,mask,visual_word,invalid,left,right,562.00958346,right,1
SPC2120,SPC,NS,visual_auditory,2,122,mask,visual_word,neutral,neutral,left,454.950018029,left,1
SPC2120,SPC,NS,visual_auditory,2,123,mask,auditory_word,valid,left,left,381.914645026,left,1
SPC2120,SPC,NS,visual_auditory,2,124,mask,auditory_word,invalid,right,left,369.21574967,left,1
SPC2120,SPC,NS,visual_auditory,2,125,mask,auditory_word,valid,right,right,412.469391478,right,1
SPC2120,SPC,NS,visual_auditory,2,126,mask,auditory_word,valid,left,left,438.433419855,left,1
SPC2120,SPC,NS,visual_auditory,2,127,mask,auditory_word,valid,left,left,375.403072219,left,1
SPC2120,SPC,NS,visual_auditory,2,128,mask,visual_word,neutral,neutral,right,432.654210948,right,1
SPC2120,SPC,NS,visual_auditory,2,129,mask,auditory_word,valid,left,left,480.656694854,left,1
SPC2120,SPC,NS,visual_auditory,2,130,mask,visual_word,invalid,right,left,473.232868069,left,1
SPC2120,SPC,NS,visual_auditory,2,131,mask,visual_word,neutral,neutral,left,542.223595025,left,1
SPC2120,SPC,NS,visual_auditory,2,132,mask,auditory_word,invalid,left,right,408.828697866,right,1
SPC2120,SPC,NS,visual_auditory,2,133,mask,visual_word,valid,right,right,579.773889098,right,1
SPC2120,SPC,NS,visual_auditory,2,134,mask,visual_word,valid,left,left,366.354153026,left,1
SPC2120,SPC,NS,visual_auditory,2,135,mask,auditory_word,invalid,left,right,481.35288863,right,1
SPC2120,SPC,NS,visual_auditory,2,136,mask,auditory_word,valid,right,right,418.287651264,right,1
SPC2120,SPC,NS,visual_auditory,2,137,mask,auditory_word,valid,left,left,378.950619837,left,1
SPC2120,SPC,NS,visual_auditory,2,138,mask,auditory_word,valid,left,left,439.566215209,left,1
SPC2120,SPC,NS,visual_auditory,2,139,mask,auditory_word,invalid,left,right,414.490114083,left,0
SPC2120,SPC,NS,visual_auditory,2,140,mask,visual_word,valid,right,right,438.477592135,right,1
SPC2120,SPC,NS,visual_auditory,2,141,mask,auditory_word,invalid,right,up,606.741716911,up,1
SPC2120,SPC,NS,visual_auditory,2,142,mask,visual_word,invalid,right,up,959.030514117,up,1
SPC2120,SPC,NS,visual_auditory,2,143,mask,auditory_word,valid,right,right,496.983800258,right,1
SPC2120,SPC,NS,visual_auditory,2,144,mask,visual_word,valid,right,right,813.589703408,right,1
SPC2120,SPC,NS,visual_auditory,2,145,mask,auditory_word,valid,left,left,437.532689073,left,1
SPC2120,SPC,NS,visual_auditory,2,146,mask,auditory_word,valid,right,right,317.466622684,right,1
SPC2120,SPC,NS,visual_auditory,2,147,mask,visual_word,neutral,neutral,right,404.794294736,right,1
SPC2120,SPC,NS,visual_auditory,2,148,mask,visual_word,invalid,right,left,495.088552649,left,1
SPC2120,SPC,NS,visual_auditory,2,149,mask,auditory_word,valid,left,left,477.033606148,left,1
SPC2120,SPC,NS,visual_auditory,2,150,mask,auditory_word,invalid,right,left,395.983201684,left,1
SPC2120,SPC,NS,visual_auditory,2,151,mask,visual_word,valid,right,right,437.58518371,right,1
SPC2120,SPC,NS,visual_auditory,2,152,mask,visual_word,invalid,right,down,517.56392984,right,0
SPC2120,SPC,NS,visual_auditory,2,153,mask,visual_word,valid,left,left,474.157925579,left,1
SPC2120,SPC,NS,visual_auditory,2,154,mask,visual_word,invalid,right,up,712.799723493,right,0
SPC2120,SPC,NS,visual_auditory,2,155,mask,visual_word,valid,left,left,429.752923199,left,1
SPC2120,SPC,NS,visual_auditory,2,156,mask,visual_word,invalid,right,left,390.7106939,left,1
SPC2120,SPC,NS,visual_auditory,2,157,mask,auditory_word,valid,left,left,496.992442699,left,1
SPC2120,SPC,NS,visual_auditory,2,158,mask,visual_word,valid,right,right,342.931952269,right,1
SPC2120,SPC,NS,visual_auditory,2,159,mask,auditory_word,valid,right,right,378.556590178,right,1
SPC2120,SPC,NS,visual_auditory,2,160,mask,auditory_word,valid,left,left,420.51067017,left,1
SPC2120,SPC,NS,visual_auditory,2,161,mask,visual_word,valid,right,right,390.157259768,right,1
SPC2120,SPC,NS,visual_auditory,2,162,mask,auditory_word,valid,right,right,423.430202994,right,1
SPC2120,SPC,NS,visual_auditory,2,163,mask,auditory_word,valid,right,right,375.733084104,right,1
SPC2120,SPC,NS,visual_auditory,2,164,mask,auditory_word,invalid,left,right,515.685646911,right,1
SPC2120,SPC,NS,visual_auditory,2,165,mask,auditory_word,valid,left,left,321.969636367,left,1
SPC2120,SPC,NS,visual_auditory,2,166,mask,auditory_word,valid,left,left,358.581108972,left,1
SPC2120,SPC,NS,visual_auditory,2,167,mask,auditory_word,neutral,neutral,left,692.213832343,left,1
SPC2120,SPC,NS,visual_auditory,2,168,mask,auditory_word,invalid,left,right,480.501451588,right,1
SPC2120,SPC,NS,visual_auditory,2,169,mask,auditory_word,invalid,left,right,454.48812953,right,1
SPC2120,SPC,NS,visual_auditory,2,170,mask,auditory_word,valid,left,left,348.738688859,left,1
SPC2120,SPC,NS,visual_auditory,2,171,mask,visual_word,valid,right,right,358.692820068,right,1
SPC2120,SPC,NS,visual_auditory,2,172,mask,visual_word,valid,right,right,529.988188704,right,1
SPC2120,SPC,NS,visual_auditory,2,173,mask,visual_word,invalid,right,up,1125.27231581,up,1
SPC2120,SPC,NS,visual_auditory,2,174,mask,auditory_word,invalid,right,down,546.527513245,down,1
SPC2120,SPC,NS,visual_auditory,2,175,mask,auditory_word,valid,right,right,439.153940417,right,1
SPC2120,SPC,NS,visual_auditory,2,176,mask,auditory_word,valid,right,right,417.778069386,right,1
SPC2120,SPC,NS,visual_auditory,2,177,mask,auditory_word,invalid,right,up,497.398315696,up,1
SPC2120,SPC,NS,visual_auditory,2,178,mask,auditory_word,invalid,right,left,399.343177152,left,1
SPC2120,SPC,NS,visual_auditory,2,179,mask,visual_word,invalid,left,right,488.332751847,right,1
SPC2120,SPC,NS,visual_auditory,2,180,mask,visual_word,valid,right,right,448.277120362,right,1
SPC2120,SPC,NS,visual_auditory,2,181,mask,visual_word,valid,right,right,320.550681325,right,1
SPC2120,SPC,NS,visual_auditory,2,182,mask,visual_word,valid,right,right,358.525733522,right,1
SPC2120,SPC,NS,visual_auditory,2,183,mask,visual_word,valid,left,left,554.135071172,left,1
SPC2120,SPC,NS,visual_auditory,2,184,mask,auditory_word,neutral,neutral,right,462.410014938,right,1
SPC2120,SPC,NS,visual_auditory,2,185,mask,visual_word,valid,left,left,510.390732787,left,1
SPC2120,SPC,NS,visual_auditory,2,186,mask,auditory_word,invalid,left,right,402.008559147,right,1
SPC2120,SPC,NS,visual_auditory,2,187,mask,visual_word,valid,left,left,529.965462396,left,1
SPC2120,SPC,NS,visual_auditory,2,188,mask,auditory_word,invalid,right,left,736.573061964,left,1
SPC2120,SPC,NS,visual_auditory,2,189,mask,visual_word,valid,left,left,693.834443518,left,1
SPC2120,SPC,NS,visual_auditory,2,190,mask,auditory_word,valid,left,left,389.100005443,right,0
SPC2120,SPC,NS,visual_auditory,2,191,mask,visual_word,valid,left,left,449.084385124,left,1
SPC2120,SPC,NS,visual_auditory,2,192,mask,visual_word,valid,left,left,507.044201076,left,1
SPC2120,SPC,NS,visual_auditory,2,193,mask,visual_word,valid,right,right,816.9855288,left,0
SPC2120,SPC,NS,visual_auditory,2,194,mask,auditory_word,valid,right,right,128.610525164,right,1
SPC2120,SPC,NS,visual_auditory,2,195,mask,auditory_word,valid,left,left,325.92113642,left,1
SPC2120,SPC,NS,visual_auditory,2,196,mask,visual_word,valid,right,right,539.547329943,right,1
SPC2120,SPC,NS,visual_auditory,2,197,mask,auditory_word,invalid,right,left,342.505273467,left,1
SPC2120,SPC,NS,visual_auditory,2,198,mask,visual_word,valid,right,right,393.114883162,right,1
SPC2120,SPC,NS,visual_auditory,2,199,mask,visual_word,valid,left,left,476.38638597,left,1
SPC2120,SPC,NS,visual_auditory,2,200,mask,visual_word,invalid,right,left,505.679981317,left,1
SPC2120,SPC,NS,visual_auditory,2,201,mask,visual_word,invalid,right,down,470.672795316,right,0
SPC2120,SPC,NS,visual_auditory,2,202,mask,visual_word,valid,left,left,509.926283499,left,1
SPC2120,SPC,NS,visual_auditory,2,203,mask,auditory_word,valid,left,left,421.506467392,left,1
SPC2120,SPC,NS,visual_auditory,2,204,mask,visual_word,valid,left,left,455.524257966,left,1
SPC2120,SPC,NS,visual_auditory,2,205,mask,auditory_word,valid,right,right,480.461760599,right,1
SPC2120,SPC,NS,visual_auditory,2,206,mask,visual_word,invalid,right,up,648.755013361,up,1
SPC2120,SPC,NS,visual_auditory,3,207,mask,auditory_word,valid,right,right,440.9112297,right,1
SPC2120,SPC,NS,visual_auditory,3,208,mask,visual_word,valid,left,left,535.225166706,left,1
SPC2120,SPC,NS,visual_auditory,3,209,mask,auditory_word,neutral,neutral,left,362.172828929,left,1
SPC2120,SPC,NS,visual_auditory,3,210,mask,visual_word,invalid,left,down,509.43622709,down,1
SPC2120,SPC,NS,visual_auditory,3,211,mask,visual_word,invalid,left,up,466.406967666,down,0
SPC2120,SPC,NS,visual_auditory,3,212,mask,visual_word,valid,left,left,450.685470831,left,1
SPC2120,SPC,NS,visual_auditory,3,213,mask,visual_word,valid,left,left,441.984808596,left,1
SPC2120,SPC,NS,visual_auditory,3,214,mask,visual_word,valid,left,left,467.284972081,left,1
SPC2120,SPC,NS,visual_auditory,3,215,mask,visual_word,valid,right,right,347.555959597,right,1
SPC2120,SPC,NS,visual_auditory,3,216,mask,visual_word,invalid,right,left,424.182092305,left,1
SPC2120,SPC,NS,visual_auditory,3,217,mask,visual_word,valid,right,right,472.8055491,right,1
SPC2120,SPC,NS,visual_auditory,3,218,mask,auditory_word,invalid,left,up,726.107428316,up,1
SPC2120,SPC,NS,visual_auditory,3,219,mask,visual_word,invalid,right,left,420.719368267,left,1
SPC2120,SPC,NS,visual_auditory,3,220,mask,auditory_word,invalid,right,up,680.016196507,up,1
SPC2120,SPC,NS,visual_auditory,3,221,mask,auditory_word,valid,right,right,536.292663892,right,1
SPC2120,SPC,NS,visual_auditory,3,222,mask,visual_word,valid,left,left,498.890251038,left,1
SPC2120,SPC,NS,visual_auditory,3,223,mask,visual_word,invalid,left,up,506.871673104,up,1
SPC2120,SPC,NS,visual_auditory,3,224,mask,visual_word,valid,right,right,566.822763474,right,1
SPC2120,SPC,NS,visual_auditory,3,225,mask,auditory_word,invalid,right,down,620.072468184,down,1
SPC2120,SPC,NS,visual_auditory,3,226,mask,auditory_word,valid,left,left,967.029861116,left,1
SPC2120,SPC,NS,visual_auditory,3,227,mask,auditory_word,valid,right,right,403.992151376,right,1
SPC2120,SPC,NS,visual_auditory,3,228,mask,auditory_word,valid,right,right,303.930054128,right,1
SPC2120,SPC,NS,visual_auditory,3,229,mask,visual_word,valid,right,right,508.901358175,right,1
SPC2120,SPC,NS,visual_auditory,3,230,mask,visual_word,valid,right,right,404.204690596,right,1
SPC2120,SPC,NS,visual_auditory,3,231,mask,visual_word,neutral,neutral,left,375.473491848,left,1
SPC2120,SPC,NS,visual_auditory,3,232,mask,auditory_word,valid,left,left,536.775358254,left,1
SPC2120,SPC,NS,visual_auditory,3,233,mask,visual_word,valid,right,right,340.388524171,right,1
SPC2120,SPC,NS,visual_auditory,3,234,mask,auditory_word,invalid,right,down,704.022239777,down,1
SPC2120,SPC,NS,visual_auditory,3,235,mask,visual_word,valid,right,right,453.284594463,right,1
SPC2120,SPC,NS,visual_auditory,3,236,mask,visual_word,invalid,left,down,686.224324862,down,1
SPC2120,SPC,NS,visual_auditory,3,237,mask,visual_word,valid,right,right,462.191394065,right,1
SPC2120,SPC,NS,visual_auditory,3,238,mask,visual_word,valid,left,left,685.492921213,left,1
SPC2120,SPC,NS,visual_auditory,3,239,mask,visual_word,invalid,left,up,644.750698586,left,0
SPC2120,SPC,NS,visual_auditory,3,240,mask,visual_word,valid,right,right,444.418126019,down,0
SPC2120,SPC,NS,visual_auditory,3,241,mask,visual_word,neutral,neutral,left,404.994350451,right,0
SPC2120,SPC,NS,visual_auditory,3,242,mask,auditory_word,valid,right,right,381.959777616,left,0
SPC2120,SPC,NS,visual_auditory,3,243,mask,auditory_word,valid,left,left,438.950363779,left,1
SPC2120,SPC,NS,visual_auditory,3,244,mask,visual_word,valid,left,left,376.214178046,left,1
SPC2120,SPC,NS,visual_auditory,3,245,mask,auditory_word,valid,left,left,371.159650851,left,1
SPC2120,SPC,NS,visual_auditory,3,246,mask,auditory_word,valid,right,right,348.462451948,right,1
SPC2120,SPC,NS,visual_auditory,3,247,mask,visual_word,valid,left,left,439.089602558,left,1
SPC2120,SPC,NS,visual_auditory,3,248,mask,visual_word,invalid,left,down,640.377321048,down,1
SPC2120,SPC,NS,visual_auditory,3,249,mask,auditory_word,neutral,neutral,right,690.677084494,right,1
SPC2120,SPC,NS,visual_auditory,3,250,mask,auditory_word,invalid,right,down,513.924516563,down,1
SPC2120,SPC,NS,visual_auditory,3,251,mask,auditory_word,valid,left,left,286.224004754,left,1
SPC2120,SPC,NS,visual_auditory,3,252,mask,visual_word,valid,left,left,435.83845743,left,1
SPC2120,SPC,NS,visual_auditory,3,253,mask,visual_word,neutral,neutral,left,844.136127445,right,0
SPC2120,SPC,NS,visual_auditory,3,254,mask,auditory_word,invalid,left,down,285.100812092,left,0
SPC2120,SPC,NS,visual_auditory,3,255,mask,auditory_word,valid,right,right,293.360711599,right,1
SPC2120,SPC,NS,visual_auditory,3,256,mask,auditory_word,neutral,neutral,right,789.686408709,right,1
SPC2120,SPC,NS,visual_auditory,3,257,mask,auditory_word,valid,right,right,665.91787152,right,1
SPC2120,SPC,NS,visual_auditory,3,258,mask,auditory_word,valid,right,right,383.874550695,right,1
SPC2120,SPC,NS,visual_auditory,3,259,mask,visual_word,valid,left,left,464.531885693,left,1
SPC2120,SPC,NS,visual_auditory,3,260,mask,auditory_word,valid,right,right,393.153293873,right,1
SPC2120,SPC,NS,visual_auditory,3,261,mask,auditory_word,valid,right,right,1004.76964784,down,0
SPC2120,SPC,NS,visual_auditory,3,262,mask,auditory_word,valid,left,left,453.027882962,left,1
SPC2120,SPC,NS,visual_auditory,3,263,mask,auditory_word,neutral,neutral,left,459.663970454,left,1
SPC2120,SPC,NS,visual_auditory,3,264,mask,auditory_word,invalid,left,down,497.259717085,down,1
SPC2120,SPC,NS,visual_auditory,3,265,mask,auditory_word,invalid,right,left,350.590404356,left,1
SPC2120,SPC,NS,visual_auditory,3,266,mask,auditory_word,valid,right,right,275.534948916,left,0
SPC2120,SPC,NS,visual_auditory,3,267,mask,auditory_word,valid,right,right,320.495625958,right,1
SPC2120,SPC,NS,visual_auditory,3,268,mask,auditory_word,valid,right,right,270.111358957,right,1
SPC2120,SPC,NS,visual_auditory,3,269,mask,auditory_word,valid,right,right,620.094554324,right,1
SPC2120,SPC,NS,visual_auditory,3,270,mask,auditory_word,neutral,neutral,right,422.050938942,right,1
SPC2120,SPC,NS,visual_auditory,3,271,mask,auditory_word,valid,left,left,373.307448812,left,1
SPC2120,SPC,NS,visual_auditory,3,272,mask,visual_word,valid,right,right,585.616155528,right,1
SPC2120,SPC,NS,visual_auditory,3,273,mask,auditory_word,valid,left,left,403.890042973,left,1
SPC2120,SPC,NS,visual_auditory,3,274,mask,visual_word,invalid,left,down,485.498042661,down,1
SPC2120,SPC,NS,visual_auditory,3,275,mask,visual_word,invalid,left,right,386.804966489,right,1
SPC2120,SPC,NS,visual_auditory,3,276,mask,visual_word,valid,right,right,485.744511301,right,1
SPC2120,SPC,NS,visual_auditory,3,277,mask,auditory_word,valid,left,left,302.02392349,left,1
SPC2120,SPC,NS,visual_auditory,3,278,mask,auditory_word,valid,left,left,413.995256298,left,1
SPC2120,SPC,NS,visual_auditory,3,279,mask,visual_word,invalid,right,down,934.926203452,left,0
SPC2120,SPC,NS,visual_auditory,3,280,mask,visual_word,invalid,left,down,569.872892636,down,1
SPC2120,SPC,NS,visual_auditory,3,281,mask,auditory_word,valid,left,left,355.85042875,left,1
SPC2120,SPC,NS,visual_auditory,3,282,mask,auditory_word,valid,right,right,256.797572481,right,1
SPC2120,SPC,NS,visual_auditory,3,283,mask,visual_word,valid,left,left,343.071831216,left,1
SPC2120,SPC,NS,visual_auditory,3,284,mask,visual_word,valid,left,left,809.35812532,left,1
SPC2120,SPC,NS,visual_auditory,3,285,mask,visual_word,valid,right,right,395.000208111,right,1
SPC2120,SPC,NS,visual_auditory,3,286,mask,visual_word,valid,left,left,501.951263228,left,1
SPC2120,SPC,NS,visual_auditory,3,287,mask,visual_word,valid,left,left,2116.71793426,timeout,0
SPC2120,SPC,NS,visual_auditory,3,288,mask,auditory_word,valid,left,left,278.820983774,left,1
SPC2120,SPC,NS,visual_auditory,3,289,mask,auditory_word,neutral,neutral,right,228.4508007,right,1
SPC2120,SPC,NS,visual_auditory,3,290,mask,auditory_word,valid,right,right,772.372148407,right,1
SPC2120,SPC,NS,visual_auditory,3,291,mask,visual_word,valid,left,left,574.977673765,left,1
SPC2120,SPC,NS,visual_auditory,3,292,mask,visual_word,valid,right,right,370.973679062,right,1
SPC2120,SPC,NS,visual_auditory,3,293,mask,visual_word,valid,left,left,983.587750816,down,0
SPC2120,SPC,NS,visual_auditory,3,294,mask,visual_word,valid,left,left,432.208646904,left,1
SPC2120,SPC,NS,visual_auditory,3,295,mask,visual_word,valid,right,right,504.130750021,right,1
SPC2120,SPC,NS,visual_auditory,3,296,mask,visual_word,valid,right,right,414.78971747,right,1
SPC2120,SPC,NS,visual_auditory,3,297,mask,visual_word,invalid,left,right,774.04781495,right,1
SPC2120,SPC,NS,visual_auditory,3,298,mask,auditory_word,valid,left,left,328.354133817,left,1
SPC2120,SPC,NS,visual_auditory,3,299,mask,visual_word,neutral,neutral,right,413.60378731,right,1
SPC2120,SPC,NS,visual_auditory,3,300,mask,auditory_word,valid,right,right,470.237794216,right,1
SPC2120,SPC,NS,visual_auditory,3,301,mask,visual_word,valid,left,left,421.913300641,right,0
SPC2120,SPC,NS,visual_auditory,3,302,mask,auditory_word,invalid,right,left,326.811304258,left,1
