subj_id,sona_experiment_code,experimenter,cue_contrast,block,trial,mask_type,cue_type,cue_validity,cue_dir,target_loc,rt,response_type,is_correct
P216,SPC,JR,word_arrow,0,0,mask,visual_word,valid,right,right,2116.71761418,timeout,0
P216,SPC,JR,word_arrow,0,1,mask,visual_word,valid,left,left,595.899338368,left,1
P216,SPC,JR,word_arrow,0,2,mask,visual_arrow,valid,left,left,424.180491827,left,1
P216,SPC,JR,word_arrow,0,3,mask,visual_word,valid,right,right,447.485539946,right,1
P216,SPC,JR,word_arrow,0,4,mask,visual_arrow,valid,right,right,383.08489084,right,1
P216,SPC,JR,word_arrow,0,5,mask,visual_arrow,valid,left,left,467.376837682,left,1
P216,SPC,JR,word_arrow,0,6,mask,visual_arrow,invalid,right,down,602.647137013,down,1
P216,SPC,JR,word_arrow,0,7,mask,visual_word,valid,left,left,410.63784156,left,1
P216,SPC,JR,word_arrow,0,8,mask,visual_arrow,neutral,neutral,left,468.276608211,left,1
P216,SPC,JR,word_arrow,0,9,mask,visual_arrow,neutral,neutral,right,649.527708534,right,1
P216,SPC,JR,word_arrow,0,10,mask,visual_word,valid,right,right,370.132804965,right,1
P216,SPC,JR,word_arrow,0,11,mask,visual_arrow,valid,right,right,339.410651883,right,1
P216,SPC,JR,word_arrow,0,12,mask,visual_arrow,valid,left,left,329.052888323,left,1
P216,SPC,JR,word_arrow,0,13,mask,visual_arrow,valid,left,left,396.66243078,left,1
P216,SPC,JR,word_arrow,0,14,mask,visual_arrow,valid,right,right,591.280772525,right,1
P216,SPC,JR,word_arrow,1,15,mask,visual_word,valid,left,left,362.74802906,left,1
P216,SPC,JR,word_arrow,1,16,mask,visual_word,valid,right,right,334.711103584,right,1
P216,SPC,JR,word_arrow,1,17,mask,visual_arrow,invalid,left,up,467.350910476,up,1
P216,SPC,JR,word_arrow,1,18,mask,visual_arrow,valid,right,right,444.292971166,right,1
P216,SPC,JR,word_arrow,1,19,mask,visual_arrow,valid,right,right,515.919632046,right,1
P216,SPC,JR,word_arrow,1,20,mask,visual_arrow,valid,left,left,353.517299227,left,1
P216,SPC,JR,word_arrow,1,21,mask,visual_arrow,valid,left,left,347.807229497,left,1
P216,SPC,JR,word_arrow,1,22,mask,visual_arrow,invalid,right,left,440.748624387,left,1
P216,SPC,JR,word_arrow,1,23,mask,visual_word,invalid,left,right,401.691030827,right,1
P216,SPC,JR,word_arrow,1,24,mask,visual_word,valid,left,left,379.681383318,left,1
P216,SPC,JR,word_arrow,1,25,mask,visual_word,valid,left,left,384.274662065,left,1
P216,SPC,JR,word_arrow,1,26,mask,visual_arrow,invalid,left,right,692.27560953,right,1
P216,SPC,JR,word_arrow,1,27,mask,visual_word,valid,left,left,339.858136547,left,1
P216,SPC,JR,word_arrow,1,28,mask,visual_arrow,invalid,left,up,578.471446468,right,0
P216,SPC,JR,word_arrow,1,29,mask,visual_arrow,valid,left,left,380.799454579,left,1
P216,SPC,JR,word_arrow,1,30,mask,visual_word,valid,right,right,342.422370391,right,1
P216,SPC,JR,word_arrow,1,31,mask,visual_word,valid,left,left,433.67305462,left,1
P216,SPC,JR,word_arrow,1,32,mask,visual_word,valid,right,right,306.644729921,right,1
P216,SPC,JR,word_arrow,1,33,mask,visual_word,invalid,right,left,394.276806677,left,1
P216,SPC,JR,word_arrow,1,34,mask,visual_word,valid,left,left,363.890107023,left,1
P216,SPC,JR,word_arrow,1,35,mask,visual_arrow,neutral,neutral,right,384.189198259,right,1
P216,SPC,JR,word_arrow,1,36,mask,visual_word,neutral,neutral,left,385.138582555,left,1
P216,SPC,JR,word_arrow,1,37,mask,visual_arrow,neutral,neutral,left,330.870674399,left,1
P216,SPC,JR,word_arrow,1,38,mask,visual_arrow,valid,right,right,302.0841002,right,1
P216,SPC,JR,word_arrow,1,39,mask,visual_arrow,valid,right,right,365.224558511,right,1
P216,SPC,JR,word_arrow,1,40,mask,visual_word,valid,right,right,287.971371203,right,1
P216,SPC,JR,word_arrow,1,41,mask,visual_arrow,valid,left,left,328.297157947,left,1
P216,SPC,JR,word_arrow,1,42,mask,visual_word,valid,right,right,334.545297432,right,1
P216,SPC,JR,word_arrow,1,43,mask,visual_arrow,valid,right,right,293.147212185,right,1
P216,SPC,JR,word_arrow,1,44,mask,visual_arrow,neutral,neutral,left,345.470258908,left,1
P216,SPC,JR,word_arrow,1,45,mask,visual_arrow,invalid,right,left,716.063672095,right,0
P216,SPC,JR,word_arrow,1,46,mask,visual_word,invalid,left,right,367.721893766,right,1
P216,SPC,JR,word_arrow,1,47,mask,visual_arrow,invalid,right,left,441.662158759,left,1
P216,SPC,JR,word_arrow,1,48,mask,visual_arrow,valid,right,right,314.622630947,right,1
P216,SPC,JR,word_arrow,1,49,mask,visual_arrow,valid,right,right,423.901054019,right,1
P216,SPC,JR,word_arrow,1,50,mask,visual_arrow,valid,right,right,537.207798625,right,1
P216,SPC,JR,word_arrow,1,51,mask,visual_arrow,valid,left,left,463.452225085,left,1
P216,SPC,JR,word_arrow,1,52,mask,visual_word,valid,left,left,400.122274004,left,1
P216,SPC,JR,word_arrow,1,53,mask,visual_word,valid,left,left,457.375013211,left,1
P216,SPC,JR,word_arrow,1,54,mask,visual_word,valid,right,right,386.677571048,up,0
P216,SPC,JR,word_arrow,1,55,mask,visual_word,invalid,right,left,131.96601934,right,0
P216,SPC,JR,word_arrow,1,56,mask,visual_arrow,valid,left,left,672.912778915,left,1
P216,SPC,JR,word_arrow,1,57,mask,visual_arrow,invalid,left,right,417.888820288,right,1
P216,SPC,JR,word_arrow,1,58,mask,visual_arrow,valid,right,right,436.824972101,right,1
P216,SPC,JR,word_arrow,1,59,mask,visual_word,valid,right,right,340.772311029,right,1
P216,SPC,JR,word_arrow,1,60,mask,visual_arrow,neutral,neutral,right,367.412367603,right,1
P216,SPC,JR,word_arrow,1,61,mask,visual_word,invalid,left,right,545.369430853,right,1
P216,SPC,JR,word_arrow,1,62,mask,visual_word,valid,left,left,350.326971035,left,1
P216,SPC,JR,word_arrow,1,63,mask,visual_arrow,invalid,right,up,376.924135664,right,0
P216,SPC,JR,word_arrow,1,64,mask,visual_arrow,invalid,right,left,378.889482818,left,1
P216,SPC,JR,word_arrow,1,65,mask,visual_word,valid,right,right,318.487386859,right,1
P216,SPC,JR,word_arrow,1,66,mask,visual_arrow,valid,right,right,379.805257777,right,1
P216,SPC,JR,word_arrow,1,67,mask,visual_arrow,valid,left,left,512.089765747,left,1
P216,SPC,JR,word_arrow,1,68,mask,visual_word,invalid,left,right,444.042981602,right,1
P216,SPC,JR,word_arrow,1,69,mask,visual_word,valid,left,left,627.331449126,left,1
P216,SPC,JR,word_arrow,1,70,mask,visual_arrow,invalid,right,up,579.284472798,up,1
P216,SPC,JR,word_arrow,1,71,mask,visual_word,valid,left,left,453.232099826,left,1
P216,SPC,JR,word_arrow,1,72,mask,visual_arrow,valid,right,right,326.850355137,right,1
P216,SPC,JR,word_arrow,1,73,mask,visual_word,invalid,left,down,461.815929506,down,1
P216,SPC,JR,word_arrow,1,74,mask,visual_word,invalid,left,right,477.127072169,right,1
P216,SPC,JR,word_arrow,1,75,mask,visual_arrow,valid,right,right,373.060660088,right,1
P216,SPC,JR,word_arrow,1,76,mask,visual_arrow,valid,left,left,344.373953703,left,1
P216,SPC,JR,word_arrow,1,77,mask,visual_word,invalid,right,down,747.982638364,down,1
P216,SPC,JR,word_arrow,1,78,mask,visual_word,valid,right,right,446.264720114,right,1
P216,SPC,JR,word_arrow,1,79,mask,visual_word,neutral,neutral,left,444.874573092,left,1
P216,SPC,JR,word_arrow,1,80,mask,visual_arrow,invalid,left,up,283.844462305,left,0
P216,SPC,JR,word_arrow,1,81,mask,visual_word,valid,left,left,410.139782936,left,1
P216,SPC,JR,word_arrow,1,82,mask,visual_word,valid,right,right,332.418945443,right,1
P216,SPC,JR,word_arrow,1,83,mask,visual_arrow,valid,right,right,385.014067928,right,1
P216,SPC,JR,word_arrow,1,84,mask,visual_arrow,valid,left,left,338.995496393,left,1
P216,SPC,JR,word_arrow,1,85,mask,visual_word,neutral,neutral,right,439.965686412,right,1
P216,SPC,JR,word_arrow,1,86,mask,visual_arrow,valid,left,left,514.229561551,left,1
P216,SPC,JR,word_arrow,1,87,mask,visual_arrow,valid,right,right,359.170393029,right,1
P216,SPC,JR,word_arrow,1,88,mask,visual_arrow,invalid,left,down,540.486791579,down,1
P216,SPC,JR,word_arrow,1,89,mask,visual_word,invalid,left,down,625.765253033,down,1
P216,SPC,JR,word_arrow,1,90,mask,visual_arrow,valid,right,right,387.058157008,right,1
P216,SPC,JR,word_arrow,1,91,mask,visual_word,neutral,neutral,right,420.980881026,right,1
P216,SPC,JR,word_arrow,1,92,mask,visual_word,neutral,neutral,right,367.954598565,right,1
P216,SPC,JR,word_arrow,1,93,mask,visual_arrow,valid,right,right,396.246955148,right,1
P216,SPC,JR,word_arrow,1,94,mask,visual_arrow,valid,left,left,468.521476374,left,1
P216,SPC,JR,word_arrow,1,95,mask,visual_word,valid,right,right,441.81003992,right,1
P216,SPC,JR,word_arrow,1,96,mask,visual_word,valid,left,left,371.443889977,left,1
P216,SPC,JR,word_arrow,1,97,mask,visual_word,neutral,neutral,right,544.07274985,right,1
P216,SPC,JR,word_arrow,1,98,mask,visual_arrow,valid,left,left,446.348263358,left,1
P216,SPC,JR,word_arrow,1,99,mask,visual_arrow,valid,left,left,550.315447792,left,1
P216,SPC,JR,word_arrow,1,100,mask,visual_arrow,valid,left,left,450.280558143,left,1
P216,SPC,JR,word_arrow,1,101,mask,visual_word,valid,left,left,474.897971551,up,0
P216,SPC,JR,word_arrow,1,102,mask,visual_arrow,valid,right,right,570.833480044,right,1
P216,SPC,JR,word_arrow,1,103,mask,visual_arrow,invalid,right,up,486.126377597,up,1
P216,SPC,JR,word_arrow,1,104,mask,visual_word,valid,left,left,413.74558676,left,1
P216,SPC,JR,word_arrow,1,105,mask,visual_arrow,valid,right,right,325.661864248,right,1
P216,SPC,JR,word_arrow,1,106,mask,visual_word,invalid,left,right,555.000272056,right,1
P216,SPC,JR,word_arrow,1,107,mask,visual_arrow,neutral,neutral,right,400.600807276,right,1
P216,SPC,JR,word_arrow,1,108,mask,visual_word,invalid,right,left,522.899175121,left,1
P216,SPC,JR,word_arrow,1,109,mask,visual_word,valid,left,left,400.862640177,left,1
P216,SPC,JR,word_arrow,1,110,mask,visual_arrow,valid,right,right,305.81025756,right,1
P216,SPC,JR,word_arrow,1,111,mask,visual_word,invalid,right,left,393.450016505,left,1
P216,SPC,JR,word_arrow,1,112,mask,visual_arrow,valid,left,left,532.049562607,left,1
P216,SPC,JR,word_arrow,2,113,mask,visual_word,valid,right,right,450.339134375,right,1
P216,SPC,JR,word_arrow,2,114,mask,visual_arrow,valid,right,right,331.984904595,right,1
P216,SPC,JR,word_arrow,2,115,mask,visual_word,valid,left,left,367.89890303,left,1
P216,SPC,JR,word_arrow,2,116,mask,visual_arrow,valid,right,right,308.190120151,right,1
P216,SPC,JR,word_arrow,2,117,mask,visual_arrow,valid,left,left,387.168267625,left,1
P216,SPC,JR,word_arrow,2,118,mask,visual_arrow,invalid,left,up,414.786836656,up,1
P216,SPC,JR,word_arrow,2,119,mask,visual_word,valid,right,right,281.067049073,right,1
P216,SPC,JR,word_arrow,2,120,mask,visual_arrow,neutral,neutral,left,415.700050886,left,1
P216,SPC,JR,word_arrow,2,121,mask,visual_word,valid,right,right,438.948123192,right,1
P216,SPC,JR,word_arrow,2,122,mask,visual_arrow,neutral,neutral,left,446.26856118,left,1
P216,SPC,JR,word_arrow,2,123,mask,visual_arrow,valid,right,right,319.907622295,right,1
P216,SPC,JR,word_arrow,2,124,mask,visual_word,invalid,right,down,508.859746566,down,1
P216,SPC,JR,word_arrow,2,125,mask,visual_word,invalid,right,left,404.122747772,left,1
P216,SPC,JR,word_arrow,2,126,mask,visual_word,invalid,right,up,399.087105878,up,1
P216,SPC,JR,word_arrow,2,127,mask,visual_arrow,valid,right,right,320.050381997,right,1
P216,SPC,JR,word_arrow,2,128,mask,visual_arrow,valid,right,right,391.035264183,right,1
P216,SPC,JR,word_arrow,2,129,mask,visual_word,valid,right,right,376.952623599,right,1
P216,SPC,JR,word_arrow,2,130,mask,visual_word,valid,right,right,409.906117828,right,1
P216,SPC,JR,word_arrow,2,131,mask,visual_arrow,valid,right,right,333.221408888,right,1
P216,SPC,JR,word_arrow,2,132,mask,visual_word,valid,left,left,344.161414541,left,1
P216,SPC,JR,word_arrow,2,133,mask,visual_word,valid,right,right,387.117053382,right,1
P216,SPC,JR,word_arrow,2,134,mask,visual_arrow,valid,right,right,444.717729406,right,1
P216,SPC,JR,word_arrow,2,135,mask,visual_arrow,valid,right,right,486.003143305,right,1
P216,SPC,JR,word_arrow,2,136,mask,visual_arrow,neutral,neutral,right,477.341211808,right,1
P216,SPC,JR,word_arrow,2,137,mask,visual_word,valid,left,left,350.242787623,left,1
P216,SPC,JR,word_arrow,2,138,mask,visual_word,valid,left,left,331.239737105,left,1
P216,SPC,JR,word_arrow,2,139,mask,visual_word,valid,left,left,343.853488797,left,1
P216,SPC,JR,word_arrow,2,140,mask,visual_word,valid,left,left,444.114361482,left,1
P216,SPC,JR,word_arrow,2,141,mask,visual_word,valid,right,right,414.414893079,right,1
P216,SPC,JR,word_arrow,2,142,mask,visual_arrow,valid,left,left,674.040452868,left,1
P216,SPC,JR,word_arrow,2,143,mask,visual_arrow,valid,left,left,386.333155155,left,1
P216,SPC,JR,word_arrow,2,144,mask,visual_arrow,valid,left,left,396.953711926,left,1
P216,SPC,JR,word_arrow,2,145,mask,visual_word,invalid,right,left,470.248037076,left,1
P216,SPC,JR,word_arrow,2,146,mask,visual_word,invalid,left,right,420.195062296,right,1
P216,SPC,JR,word_arrow,2,147,mask,visual_word,valid,left,left,412.834613177,left,1
P216,SPC,JR,word_arrow,2,148,mask,visual_arrow,invalid,left,down,527.1029055,down,1
P216,SPC,JR,word_arrow,2,149,mask,visual_arrow,valid,left,left,426.704714599,left,1
P216,SPC,JR,word_arrow,2,150,mask,visual_arrow,neutral,neutral,left,509.323555685,left,1
P216,SPC,JR,word_arrow,2,151,mask,visual_word,valid,right,right,348.958590068,right,1
P216,SPC,JR,word_arrow,2,152,mask,visual_word,valid,right,right,351.920374611,right,1
P216,SPC,JR,word_arrow,2,153,mask,visual_word,valid,left,left,1083.54197809,right,0
P216,SPC,JR,word_arrow,2,154,mask,visual_word,valid,left,left,409.485520737,left,1
P216,SPC,JR,word_arrow,2,155,mask,visual_arrow,valid,left,left,445.086472086,left,1
P216,SPC,JR,word_arrow,2,156,mask,visual_word,valid,right,right,333.754357242,right,1
P216,SPC,JR,word_arrow,2,157,mask,visual_word,neutral,neutral,left,436.000422516,left,1
P216,SPC,JR,word_arrow,2,158,mask,visual_word,valid,left,left,476.000678609,left,1
P216,SPC,JR,word_arrow,2,159,mask,visual_arrow,valid,left,left,465.923313051,left,1
P216,SPC,JR,word_arrow,2,160,mask,visual_arrow,invalid,right,down,487.88174626,right,0
P216,SPC,JR,word_arrow,2,161,mask,visual_word,valid,left,left,486.520727398,left,1
P216,SPC,JR,word_arrow,2,162,mask,visual_arrow,valid,right,right,493.120004598,right,1
P216,SPC,JR,word_arrow,2,163,mask,visual_arrow,invalid,left,up,522.05638052,up,1
P216,SPC,JR,word_arrow,2,164,mask,visual_word,valid,right,right,333.699301875,right,1
P216,SPC,JR,word_arrow,2,165,mask,visual_arrow,invalid,right,down,451.646058238,down,1
P216,SPC,JR,word_arrow,2,166,mask,visual_arrow,valid,right,right,316.589578579,right,1
P216,SPC,JR,word_arrow,2,167,mask,visual_word,valid,right,right,587.543732196,right,1
P216,SPC,JR,word_arrow,2,168,mask,visual_arrow,valid,right,right,350.834312325,right,1
P216,SPC,JR,word_arrow,2,169,mask,visual_arrow,valid,right,right,412.479954422,right,1
P216,SPC,JR,word_arrow,2,170,mask,visual_arrow,valid,right,right,300.409393967,right,1
P216,SPC,JR,word_arrow,2,171,mask,visual_word,valid,right,right,505.388380087,down,0
P216,SPC,JR,word_arrow,2,172,mask,visual_arrow,invalid,right,up,527.673944423,up,1
P216,SPC,JR,word_arrow,2,173,mask,visual_arrow,invalid,right,left,492.638270487,left,1
P216,SPC,JR,word_arrow,2,174,mask,visual_word,valid,right,right,347.276201705,right,1
P216,SPC,JR,word_arrow,2,175,mask,visual_word,valid,right,right,359.544577193,right,1
P216,SPC,JR,word_arrow,2,176,mask,visual_arrow,neutral,neutral,left,389.179067453,left,1
P216,SPC,JR,word_arrow,2,177,mask,visual_word,valid,right,right,389.451783325,right,1
P216,SPC,JR,word_arrow,2,178,mask,visual_arrow,valid,right,right,360.412978975,right,1
P216,SPC,JR,word_arrow,2,179,mask,visual_word,invalid,left,right,852.688268409,right,1
P216,SPC,JR,word_arrow,2,180,mask,visual_word,valid,left,left,428.994312009,left,1
P216,SPC,JR,word_arrow,2,181,mask,visual_word,invalid,right,up,428.575955564,up,1
P216,SPC,JR,word_arrow,2,182,mask,visual_word,invalid,right,left,475.533348508,left,1
P216,SPC,JR,word_arrow,2,183,mask,visual_arrow,valid,left,left,419.134927157,left,1
P216,SPC,JR,word_arrow,2,184,mask,visual_arrow,valid,left,left,426.796260115,left,1
P216,SPC,JR,word_arrow,2,185,mask,visual_arrow,valid,right,right,402.403869259,right,1
P216,SPC,JR,word_arrow,2,186,mask,visual_word,valid,right,right,347.702560422,right,1
P216,SPC,JR,word_arrow,2,187,mask,visual_arrow,invalid,left,right,400.972750795,right,1
P216,SPC,JR,word_arrow,2,188,mask,visual_word,invalid,left,right,915.944919048,right,1
P216,SPC,JR,word_arrow,2,189,mask,visual_word,valid,right,right,601.553072338,right,1
P216,SPC,JR,word_arrow,2,190,mask,visual_arrow,invalid,left,down,634.152548097,down,1
P216,SPC,JR,word_arrow,2,191,mask,visual_word,valid,left,left,642.444136436,left,1
P216,SPC,JR,word_arrow,2,192,mask,visual_word,valid,right,right,1652.0717768,right,1
P216,SPC,JR,word_arrow,2,193,mask,visual_arrow,valid,left,left,421.659470012,left,1
P216,SPC,JR,word_arrow,2,194,mask,visual_word,valid,right,right,367.325303378,right,1
P216,SPC,JR,word_arrow,2,195,mask,visual_arrow,valid,left,left,2116.56525178,up,0
P216,SPC,JR,word_arrow,2,196,mask,visual_arrow,valid,left,left,377.501896524,left,1
P216,SPC,JR,word_arrow,2,197,mask,visual_word,invalid,left,up,2116.72369589,timeout,0
P216,SPC,JR,word_arrow,2,198,mask,visual_word,valid,left,left,348.572882707,left,1
P216,SPC,JR,word_arrow,2,199,mask,visual_word,valid,right,right,393.505071814,right,1
P216,SPC,JR,word_arrow,2,200,mask,visual_arrow,invalid,right,left,402.13467431,left,1
P216,SPC,JR,word_arrow,2,201,mask,visual_word,invalid,left,up,403.762647533,up,1
P216,SPC,JR,word_arrow,2,202,mask,visual_word,valid,right,right,358.385214466,right,1
P216,SPC,JR,word_arrow,2,203,mask,visual_word,valid,left,left,386.349799752,left,1
P216,SPC,JR,word_arrow,2,204,mask,visual_word,invalid,left,up,606.63704772,up,1
P216,SPC,JR,word_arrow,2,205,mask,visual_word,valid,right,right,358.250136836,right,1
P216,SPC,JR,word_arrow,3,206,mask,visual_arrow,invalid,left,up,446.702281944,up,1
P216,SPC,JR,word_arrow,3,207,mask,visual_arrow,invalid,left,right,376.328129729,right,1
P216,SPC,JR,word_arrow,3,208,mask,visual_word,valid,right,right,394.630825263,right,1
P216,SPC,JR,word_arrow,3,209,mask,visual_word,valid,right,right,357.87659284,right,1
P216,SPC,JR,word_arrow,3,210,mask,visual_word,valid,right,right,331.532618671,right,1
P216,SPC,JR,word_arrow,3,211,mask,visual_arrow,valid,right,right,342.832404538,right,1
P216,SPC,JR,word_arrow,3,212,mask,visual_word,valid,left,left,395.12312226,left,1
P216,SPC,JR,word_arrow,3,213,mask,visual_word,valid,left,left,966.067673231,down,0
P216,SPC,JR,word_arrow,3,214,mask,visual_word,valid,right,right,298.340658017,right,1
P216,SPC,JR,word_arrow,3,215,mask,visual_word,neutral,neutral,right,608.320396394,right,1
P216,SPC,JR,word_arrow,3,216,mask,visual_word,invalid,right,left,633.571586339,left,1
P216,SPC,JR,word_arrow,3,217,mask,visual_arrow,valid,left,left,482.870111009,left,1
P216,SPC,JR,word_arrow,3,218,mask,visual_arrow,valid,left,left,584.134142962,left,1
P216,SPC,JR,word_arrow,3,219,mask,visual_word,valid,left,left,1059.08780999,left,1
P216,SPC,JR,word_arrow,3,220,mask,visual_word,invalid,right,left,451.023484988,left,1
P216,SPC,JR,word_arrow,3,221,mask,visual_word,valid,right,right,412.017745723,right,1
P216,SPC,JR,word_arrow,3,222,mask,visual_word,valid,right,right,429.964182025,right,1
P216,SPC,JR,word_arrow,3,223,mask,visual_word,valid,left,left,542.91658802,left,1
P216,SPC,JR,word_arrow,3,224,mask,visual_arrow,valid,right,right,322.190817911,right,1
P216,SPC,JR,word_arrow,3,225,mask,visual_word,invalid,right,up,520.492745156,up,1
P216,SPC,JR,word_arrow,3,226,mask,visual_word,valid,right,right,414.106647251,right,1
P216,SPC,JR,word_arrow,3,227,mask,visual_arrow,valid,left,left,366.087518749,left,1
P216,SPC,JR,word_arrow,3,228,mask,visual_arrow,valid,left,left,472.677193291,left,1
P216,SPC,JR,word_arrow,3,229,mask,visual_arrow,invalid,right,left,479.642332415,left,1
P216,SPC,JR,word_arrow,3,230,mask,visual_arrow,neutral,neutral,right,412.574380753,right,1
P216,SPC,JR,word_arrow,3,231,mask,visual_arrow,invalid,right,left,359.559621429,left,1
P216,SPC,JR,word_arrow,3,232,mask,visual_arrow,invalid,right,up,481.49308766,up,1
P216,SPC,JR,word_arrow,3,233,mask,visual_arrow,valid,left,left,462.799243338,left,1
P216,SPC,JR,word_arrow,3,234,mask,visual_word,valid,left,left,958.096494083,right,0
P216,SPC,JR,word_arrow,3,235,mask,visual_arrow,valid,left,left,562.016305339,left,1
P216,SPC,JR,word_arrow,3,236,mask,visual_word,valid,right,right,382.649569656,right,1
P216,SPC,JR,word_arrow,3,237,mask,visual_word,valid,right,right,554.918649374,right,1
P216,SPC,JR,word_arrow,3,238,mask,visual_word,valid,right,right,456.551103853,right,1
P216,SPC,JR,word_arrow,3,239,mask,visual_word,valid,left,left,472.854202613,left,1
P216,SPC,JR,word_arrow,3,240,mask,visual_arrow,valid,left,left,905.78945179,left,1
P216,SPC,JR,word_arrow,3,241,mask,visual_word,neutral,neutral,left,768.074952066,down,0
P216,SPC,JR,word_arrow,3,242,mask,visual_word,valid,right,right,713.683169393,right,1
P216,SPC,JR,word_arrow,3,243,mask,visual_word,invalid,right,up,452.984991018,up,1
P216,SPC,JR,word_arrow,3,244,mask,visual_arrow,valid,left,left,402.932656463,left,1
P216,SPC,JR,word_arrow,3,245,mask,visual_arrow,valid,right,right,326.198653725,right,1
P216,SPC,JR,word_arrow,3,246,mask,visual_arrow,valid,left,left,361.184393696,left,1
P216,SPC,JR,word_arrow,3,247,mask,visual_arrow,invalid,left,right,324.471452856,right,1
P216,SPC,JR,word_arrow,3,248,mask,visual_word,valid,left,left,343.407924753,left,1
P216,SPC,JR,word_arrow,3,249,mask,visual_word,invalid,right,left,562.347917643,left,1
P216,SPC,JR,word_arrow,3,250,mask,visual_arrow,valid,left,left,428.644774714,left,1
P216,SPC,JR,word_arrow,3,251,mask,visual_arrow,valid,left,left,414.286537387,left,1
P216,SPC,JR,word_arrow,3,252,mask,visual_word,valid,left,left,431.900080992,left,1
P216,SPC,JR,word_arrow,3,253,mask,visual_arrow,invalid,right,left,753.167761897,right,0
P216,SPC,JR,word_arrow,3,254,mask,visual_arrow,valid,left,left,389.148018789,left,1
P216,SPC,JR,word_arrow,3,255,mask,visual_arrow,invalid,right,up,630.426710821,up,1
P216,SPC,JR,word_arrow,3,256,mask,visual_arrow,valid,right,right,321.382272814,right,1
P216,SPC,JR,word_arrow,3,257,mask,visual_arrow,valid,right,right,342.30233694,right,1
P216,SPC,JR,word_arrow,3,258,mask,visual_arrow,invalid,right,down,396.636823658,down,1
P216,SPC,JR,word_arrow,3,259,mask,visual_arrow,valid,left,left,375.913614349,left,1
P216,SPC,JR,word_arrow,3,260,mask,visual_word,invalid,left,down,396.53343492,down,1
P216,SPC,JR,word_arrow,3,261,mask,visual_arrow,invalid,left,down,463.502799219,down,1
P216,SPC,JR,word_arrow,3,262,mask,visual_word,valid,left,left,456.415386056,left,1
P216,SPC,JR,word_arrow,3,263,mask,visual_arrow,invalid,left,down,650.050414028,down,1
P216,SPC,JR,word_arrow,3,264,mask,visual_word,valid,left,left,402.698031103,left,1
P216,SPC,JR,word_arrow,3,265,mask,visual_arrow,valid,left,left,404.304238269,left,1
P216,SPC,JR,word_arrow,3,266,mask,visual_arrow,valid,right,right,495.590132312,right,1
P216,SPC,JR,word_arrow,3,267,mask,visual_word,invalid,left,right,419.889697281,right,1
P216,SPC,JR,word_arrow,3,268,mask,visual_word,neutral,neutral,left,357.500808255,left,1
P216,SPC,JR,word_arrow,3,269,mask,visual_word,invalid,left,up,513.433179818,up,1
P216,SPC,JR,word_arrow,3,270,mask,visual_word,valid,left,left,447.75857596,left,1
P216,SPC,JR,word_arrow,3,271,mask,visual_arrow,valid,right,right,320.008130278,right,1
P216,SPC,JR,word_arrow,3,272,mask,visual_arrow,valid,right,right,486.989337835,right,1
P216,SPC,JR,word_arrow,3,273,mask,visual_arrow,valid,left,left,365.279293736,left,1
P216,SPC,JR,word_arrow,3,274,mask,visual_word,invalid,right,down,498.227666598,down,1
P216,SPC,JR,word_arrow,3,275,mask,visual_arrow,valid,right,right,342.846808548,right,1
P216,SPC,JR,word_arrow,3,276,mask,visual_word,valid,left,left,955.823221186,left,1
P216,SPC,JR,word_arrow,3,277,mask,visual_word,neutral,neutral,right,583.375851798,right,1
P216,SPC,JR,word_arrow,3,278,mask,visual_arrow,valid,right,right,371.686197468,right,1
P216,SPC,JR,word_arrow,3,279,mask,visual_word,invalid,right,down,502.321926469,down,1
P216,SPC,JR,word_arrow,3,280,mask,visual_word,valid,left,left,482.622362091,left,1
P216,SPC,JR,word_arrow,3,281,mask,visual_arrow,valid,left,left,343.559646979,left,1
P216,SPC,JR,word_arrow,3,282,mask,visual_word,valid,left,left,754.825183307,left,1
P216,SPC,JR,word_arrow,3,283,mask,visual_word,valid,right,right,430.812098086,right,1
P216,SPC,JR,word_arrow,3,284,mask,visual_word,valid,right,right,448.064261116,right,1
P216,SPC,JR,word_arrow,3,285,mask,visual_arrow,valid,left,left,592.404285329,left,1
P216,SPC,JR,word_arrow,3,286,mask,visual_arrow,valid,left,left,1057.99086462,left,1
P216,SPC,JR,word_arrow,3,287,mask,visual_arrow,valid,left,left,442.291453946,left,1
P216,SPC,JR,word_arrow,3,288,mask,visual_word,valid,left,left,482.872351655,left,1
P216,SPC,JR,word_arrow,3,289,mask,visual_arrow,valid,right,right,345.166174229,right,1
P216,SPC,JR,word_arrow,3,290,mask,visual_arrow,neutral,neutral,right,403.4608035,right,1
P216,SPC,JR,word_arrow,3,291,mask,visual_arrow,invalid,left,down,606.437632232,down,1
P216,SPC,JR,word_arrow,3,292,mask,visual_arrow,valid,right,right,590.714855003,right,1
P216,SPC,JR,word_arrow,3,293,mask,visual_word,valid,left,left,426.015882811,left,1
P216,SPC,JR,word_arrow,3,294,mask,visual_word,neutral,neutral,left,456.972981279,left,1
P216,SPC,JR,word_arrow,3,295,mask,visual_arrow,valid,right,right,343.904703041,right,1
P216,SPC,JR,word_arrow,3,296,mask,visual_word,invalid,left,right,533.22556999,right,1
P216,SPC,JR,word_arrow,3,297,mask,visual_word,valid,right,right,360.464193218,right,1
P216,SPC,JR,word_arrow,3,298,mask,visual_arrow,valid,left,left,1365.42301375,down,0
P216,SPC,JR,word_arrow,3,299,mask,visual_word,valid,left,left,383.363368397,left,1
P216,SPC,JR,word_arrow,3,300,mask,visual_arrow,invalid,left,right,495.986402617,right,1
P216,SPC,JR,word_arrow,3,301,mask,visual_arrow,valid,right,right,470.293169608,right,1
P216,SPC,JR,word_arrow,3,302,mask,visual_arrow,valid,left,left,475.891848328,left,1
