subj_id,sona_experiment_code,experimenter,cue_contrast,block,trial,mask_type,cue_type,cue_validity,cue_dir,target_loc,rt,response_type,is_correct
SPC249,SPC,SK,visual_auditory,0,0,nomask,visual_word,invalid,right,down,420.92889268,right,0
SPC249,SPC,SK,visual_auditory,0,1,nomask,auditory_word,valid,left,left,221.694860957,left,1
SPC249,SPC,SK,visual_auditory,0,2,nomask,visual_word,valid,left,left,2116.61635968,timeout,0
SPC249,SPC,SK,visual_auditory,0,3,nomask,auditory_word,invalid,left,up,2116.62596231,timeout,0
SPC249,SPC,SK,visual_auditory,0,4,nomask,auditory_word,valid,left,left,569.958228618,left,1
SPC249,SPC,SK,visual_auditory,0,5,nomask,visual_word,valid,right,right,2116.62820284,timeout,0
SPC249,SPC,SK,visual_auditory,0,6,nomask,auditory_word,valid,right,right,1108.28385316,right,1
SPC249,SPC,SK,visual_auditory,0,7,nomask,auditory_word,valid,left,left,472.679608851,up,0
SPC249,SPC,SK,visual_auditory,0,8,nomask,auditory_word,invalid,left,down,599.454571726,left,0
SPC249,SPC,SK,visual_auditory,0,9,nomask,auditory_word,invalid,right,up,151.879391167,right,0
SPC249,SPC,SK,visual_auditory,0,10,nomask,auditory_word,valid,right,right,2116.64612778,timeout,0
SPC249,SPC,SK,visual_auditory,0,11,nomask,visual_word,invalid,left,up,574.809788261,right,0
SPC249,SPC,SK,visual_auditory,0,12,nomask,visual_word,valid,left,left,411.225773394,up,0
SPC249,SPC,SK,visual_auditory,0,13,nomask,visual_word,valid,left,left,634.993518237,left,1
SPC249,SPC,SK,visual_auditory,0,14,nomask,auditory_word,valid,left,left,644.084310974,left,1
SPC249,SPC,SK,visual_auditory,1,15,nomask,visual_word,valid,right,right,468.696765485,right,1
SPC249,SPC,SK,visual_auditory,1,16,nomask,auditory_word,valid,right,right,492.118816241,right,1
SPC249,SPC,SK,visual_auditory,1,17,nomask,auditory_word,valid,right,right,331.546180532,right,1
SPC249,SPC,SK,visual_auditory,1,18,nomask,auditory_word,valid,left,left,337.62303344,left,1
SPC249,SPC,SK,visual_auditory,1,19,nomask,visual_word,valid,right,right,349.366067559,right,1
SPC249,SPC,SK,visual_auditory,1,20,nomask,visual_word,neutral,neutral,right,391.470639966,right,1
SPC249,SPC,SK,visual_auditory,1,21,nomask,auditory_word,valid,left,left,347.880543559,left,1
SPC249,SPC,SK,visual_auditory,1,22,nomask,auditory_word,valid,left,left,321.303714649,left,1
SPC249,SPC,SK,visual_auditory,1,23,nomask,auditory_word,valid,right,right,296.372453333,right,1
SPC249,SPC,SK,visual_auditory,1,24,nomask,auditory_word,valid,right,right,319.778179633,right,1
SPC249,SPC,SK,visual_auditory,1,25,nomask,auditory_word,valid,right,right,358.206232078,right,1
SPC249,SPC,SK,visual_auditory,1,26,nomask,auditory_word,valid,left,left,312.282700907,left,1
SPC249,SPC,SK,visual_auditory,1,27,nomask,auditory_word,valid,right,right,335.366099607,right,1
SPC249,SPC,SK,visual_auditory,1,28,nomask,visual_word,invalid,right,left,299.426724087,left,1
SPC249,SPC,SK,visual_auditory,1,29,nomask,visual_word,invalid,right,down,329.853240051,left,0
SPC249,SPC,SK,visual_auditory,1,30,nomask,auditory_word,neutral,neutral,left,621.929804911,left,1
SPC249,SPC,SK,visual_auditory,1,31,nomask,visual_word,valid,left,left,360.019205255,left,1
SPC249,SPC,SK,visual_auditory,1,32,nomask,auditory_word,valid,right,right,402.77867578,right,1
SPC249,SPC,SK,visual_auditory,1,33,nomask,auditory_word,valid,right,right,366.895315587,right,1
SPC249,SPC,SK,visual_auditory,1,34,nomask,visual_word,valid,right,right,410.283757257,right,1
SPC249,SPC,SK,visual_auditory,1,35,nomask,visual_word,invalid,right,left,357.703695307,left,1
SPC249,SPC,SK,visual_auditory,1,36,nomask,auditory_word,valid,left,left,417.429060675,left,1
SPC249,SPC,SK,visual_auditory,1,37,nomask,visual_word,valid,right,right,370.868556201,right,1
SPC249,SPC,SK,visual_auditory,1,38,nomask,visual_word,valid,left,left,333.652353496,left,1
SPC249,SPC,SK,visual_auditory,1,39,nomask,auditory_word,valid,right,right,499.730806798,right,1
SPC249,SPC,SK,visual_auditory,1,40,nomask,auditory_word,invalid,left,down,443.13077163,down,1
SPC249,SPC,SK,visual_auditory,1,41,nomask,auditory_word,valid,left,left,317.548773251,left,1
SPC249,SPC,SK,visual_auditory,1,42,nomask,visual_word,valid,left,left,346.297712997,left,1
SPC249,SPC,SK,visual_auditory,1,43,nomask,visual_word,valid,left,left,336.401581299,left,1
SPC249,SPC,SK,visual_auditory,1,44,nomask,visual_word,valid,right,right,323.976441636,right,1
SPC249,SPC,SK,visual_auditory,1,45,nomask,visual_word,valid,left,left,290.869516553,left,1
SPC249,SPC,SK,visual_auditory,1,46,nomask,visual_word,invalid,right,left,378.937631031,left,1
SPC249,SPC,SK,visual_auditory,1,47,nomask,auditory_word,valid,left,left,432.033353136,left,1
SPC249,SPC,SK,visual_auditory,1,48,nomask,auditory_word,valid,right,right,367.465710733,right,1
SPC249,SPC,SK,visual_auditory,1,49,nomask,auditory_word,valid,left,left,331.248179544,left,1
SPC249,SPC,SK,visual_auditory,1,50,nomask,auditory_word,invalid,right,down,487.606549053,down,1
SPC249,SPC,SK,visual_auditory,1,51,nomask,auditory_word,valid,right,right,436.381735839,right,1
SPC249,SPC,SK,visual_auditory,1,52,nomask,auditory_word,valid,left,left,333.473104634,left,1
SPC249,SPC,SK,visual_auditory,1,53,nomask,auditory_word,valid,right,right,339.885408757,right,1
SPC249,SPC,SK,visual_auditory,1,54,nomask,auditory_word,valid,right,right,329.302050173,right,1
SPC249,SPC,SK,visual_auditory,1,55,nomask,auditory_word,valid,right,right,316.705664038,right,1
SPC249,SPC,SK,visual_auditory,1,56,nomask,auditory_word,valid,left,left,339.476017514,left,1
SPC249,SPC,SK,visual_auditory,1,57,nomask,visual_word,invalid,right,left,374.218267389,left,1
SPC249,SPC,SK,visual_auditory,1,58,nomask,visual_word,valid,right,right,330.961061409,right,1
SPC249,SPC,SK,visual_auditory,1,59,nomask,visual_word,valid,right,right,327.051197877,right,1
SPC249,SPC,SK,visual_auditory,1,60,nomask,visual_word,valid,left,left,357.107373187,left,1
SPC249,SPC,SK,visual_auditory,1,61,nomask,auditory_word,valid,left,left,423.199910438,left,1
SPC249,SPC,SK,visual_auditory,1,62,nomask,visual_word,invalid,right,left,369.641342433,left,1
SPC249,SPC,SK,visual_auditory,1,63,nomask,auditory_word,invalid,right,left,358.410767745,left,1
SPC249,SPC,SK,visual_auditory,1,64,nomask,visual_word,valid,left,left,313.11876839,left,1
SPC249,SPC,SK,visual_auditory,1,65,nomask,auditory_word,valid,right,right,358.855368569,right,1
SPC249,SPC,SK,visual_auditory,1,66,nomask,auditory_word,valid,right,right,312.632235931,right,1
SPC249,SPC,SK,visual_auditory,1,67,nomask,visual_word,valid,right,right,340.02880787,right,1
SPC249,SPC,SK,visual_auditory,1,68,nomask,visual_word,valid,right,right,354.460893432,right,1
SPC249,SPC,SK,visual_auditory,1,69,nomask,visual_word,invalid,right,left,324.572123704,left,1
SPC249,SPC,SK,visual_auditory,1,70,nomask,visual_word,invalid,left,right,295.957940514,right,1
SPC249,SPC,SK,visual_auditory,1,71,nomask,auditory_word,valid,right,right,316.694780951,right,1
SPC249,SPC,SK,visual_auditory,1,72,nomask,visual_word,valid,left,left,323.788550566,left,1
SPC249,SPC,SK,visual_auditory,1,73,nomask,auditory_word,invalid,left,up,504.200822557,up,1
SPC249,SPC,SK,visual_auditory,1,74,nomask,visual_word,invalid,left,down,485.972184455,down,1
SPC249,SPC,SK,visual_auditory,1,75,nomask,auditory_word,neutral,neutral,left,444.415601087,left,1
SPC249,SPC,SK,visual_auditory,1,76,nomask,auditory_word,invalid,right,left,332.130659488,left,1
SPC249,SPC,SK,visual_auditory,1,77,nomask,visual_word,invalid,left,right,265.556391329,right,1
SPC249,SPC,SK,visual_auditory,1,78,nomask,auditory_word,valid,left,left,286.282348796,left,1
SPC249,SPC,SK,visual_auditory,1,79,nomask,auditory_word,neutral,neutral,right,291.718067368,right,1
SPC249,SPC,SK,visual_auditory,1,80,nomask,auditory_word,neutral,neutral,left,275.473968941,left,1
SPC249,SPC,SK,visual_auditory,1,81,nomask,auditory_word,invalid,left,down,347.847574507,left,0
SPC249,SPC,SK,visual_auditory,1,82,nomask,visual_word,valid,right,right,502.286701929,right,1
SPC249,SPC,SK,visual_auditory,1,83,nomask,auditory_word,valid,right,right,445.707152248,right,1
SPC249,SPC,SK,visual_auditory,1,84,nomask,auditory_word,valid,left,left,349.119920633,left,1
SPC249,SPC,SK,visual_auditory,1,85,nomask,auditory_word,valid,right,right,312.549013295,right,1
SPC249,SPC,SK,visual_auditory,1,86,nomask,visual_word,valid,left,left,317.611190258,left,1
SPC249,SPC,SK,visual_auditory,1,87,nomask,visual_word,invalid,left,right,349.037338165,right,1
SPC249,SPC,SK,visual_auditory,1,88,nomask,visual_word,valid,left,left,296.441912302,left,1
SPC249,SPC,SK,visual_auditory,1,89,nomask,visual_word,valid,right,right,308.549845591,right,1
SPC249,SPC,SK,visual_auditory,1,90,nomask,auditory_word,neutral,neutral,left,264.972232515,left,1
SPC249,SPC,SK,visual_auditory,1,91,nomask,visual_word,valid,left,left,281.348526711,left,1
SPC249,SPC,SK,visual_auditory,1,92,nomask,visual_word,valid,left,left,295.434598229,left,1
SPC249,SPC,SK,visual_auditory,1,93,nomask,auditory_word,valid,right,right,295.836627483,right,1
SPC249,SPC,SK,visual_auditory,1,94,nomask,auditory_word,invalid,right,up,436.931325239,up,1
SPC249,SPC,SK,visual_auditory,1,95,nomask,auditory_word,invalid,left,up,631.686058594,up,1
SPC249,SPC,SK,visual_auditory,1,96,nomask,auditory_word,valid,left,left,321.767840767,left,1
SPC249,SPC,SK,visual_auditory,1,97,nomask,visual_word,neutral,neutral,left,303.869532421,left,1
SPC249,SPC,SK,visual_auditory,1,98,nomask,auditory_word,invalid,right,up,332.271817955,up,1
SPC249,SPC,SK,visual_auditory,1,99,nomask,visual_word,invalid,left,up,305.028567789,up,1
SPC249,SPC,SK,visual_auditory,1,100,nomask,visual_word,valid,right,right,372.797400807,right,1
SPC249,SPC,SK,visual_auditory,1,101,nomask,visual_word,neutral,neutral,right,320.525262854,right,1
SPC249,SPC,SK,visual_auditory,1,102,nomask,auditory_word,valid,right,right,327.609109692,right,1
SPC249,SPC,SK,visual_auditory,1,103,nomask,visual_word,valid,left,left,318.67003825,left,1
SPC249,SPC,SK,visual_auditory,1,104,nomask,visual_word,valid,right,right,277.422018815,right,1
SPC249,SPC,SK,visual_auditory,1,105,nomask,visual_word,valid,right,right,291.19984631,right,1
SPC249,SPC,SK,visual_auditory,1,106,nomask,auditory_word,invalid,left,down,448.591136839,down,1
SPC249,SPC,SK,visual_auditory,1,107,nomask,visual_word,invalid,left,right,328.689083457,right,1
SPC249,SPC,SK,visual_auditory,2,108,nomask,visual_word,valid,right,right,317.772834213,right,1
SPC249,SPC,SK,visual_auditory,2,109,nomask,auditory_word,neutral,neutral,right,364.840996685,right,1
SPC249,SPC,SK,visual_auditory,2,110,nomask,auditory_word,valid,right,right,312.564697582,right,1
SPC249,SPC,SK,visual_auditory,2,111,nomask,visual_word,invalid,right,left,303.336267476,left,1
SPC249,SPC,SK,visual_auditory,2,112,nomask,visual_word,valid,right,right,342.452827143,right,1
SPC249,SPC,SK,visual_auditory,2,113,nomask,visual_word,neutral,neutral,right,340.556631447,right,1
SPC249,SPC,SK,visual_auditory,2,114,nomask,visual_word,valid,left,left,313.209032873,left,1
SPC249,SPC,SK,visual_auditory,2,115,nomask,visual_word,valid,right,right,254.969511763,right,1
SPC249,SPC,SK,visual_auditory,2,116,nomask,visual_word,valid,left,left,318.39828426,left,1
SPC249,SPC,SK,visual_auditory,2,117,nomask,visual_word,invalid,right,left,338.817278272,left,1
SPC249,SPC,SK,visual_auditory,2,118,nomask,auditory_word,valid,right,right,341.567466385,right,1
SPC249,SPC,SK,visual_auditory,2,119,nomask,visual_word,invalid,left,down,458.32722506,down,1
SPC249,SPC,SK,visual_auditory,2,120,nomask,auditory_word,valid,right,right,276.069010724,right,1
SPC249,SPC,SK,visual_auditory,2,121,nomask,auditory_word,valid,right,right,301.1238256,right,1
SPC249,SPC,SK,visual_auditory,2,122,nomask,visual_word,invalid,right,down,370.558711933,down,1
SPC249,SPC,SK,visual_auditory,2,123,nomask,auditory_word,valid,right,right,268.332506414,right,1
SPC249,SPC,SK,visual_auditory,2,124,nomask,visual_word,neutral,neutral,left,411.073732073,left,1
SPC249,SPC,SK,visual_auditory,2,125,nomask,auditory_word,valid,left,left,338.805114967,left,1
SPC249,SPC,SK,visual_auditory,2,126,nomask,auditory_word,valid,left,left,360.573596088,left,1
SPC249,SPC,SK,visual_auditory,2,127,nomask,visual_word,invalid,left,right,283.649952733,right,1
SPC249,SPC,SK,visual_auditory,2,128,nomask,auditory_word,valid,left,left,292.399532744,left,1
SPC249,SPC,SK,visual_auditory,2,129,nomask,auditory_word,invalid,right,up,380.478210049,up,1
SPC249,SPC,SK,visual_auditory,2,130,nomask,auditory_word,valid,left,left,311.208808795,left,1
SPC249,SPC,SK,visual_auditory,2,131,nomask,visual_word,valid,left,left,357.944080839,left,1
SPC249,SPC,SK,visual_auditory,2,132,nomask,visual_word,valid,right,right,289.374389919,right,1
SPC249,SPC,SK,visual_auditory,2,133,nomask,auditory_word,valid,left,left,353.81399747,left,1
SPC249,SPC,SK,visual_auditory,2,134,nomask,visual_word,invalid,right,left,380.532304756,left,1
SPC249,SPC,SK,visual_auditory,2,135,nomask,visual_word,neutral,neutral,right,327.635356807,right,1
SPC249,SPC,SK,visual_auditory,2,136,nomask,visual_word,invalid,left,right,365.694348817,right,1
SPC249,SPC,SK,visual_auditory,2,137,nomask,auditory_word,valid,left,left,265.138997813,left,1
SPC249,SPC,SK,visual_auditory,2,138,nomask,auditory_word,neutral,neutral,right,329.216906917,right,1
SPC249,SPC,SK,visual_auditory,2,139,nomask,auditory_word,valid,right,right,320.306323352,right,1
SPC249,SPC,SK,visual_auditory,2,140,nomask,visual_word,invalid,left,up,373.71188961,up,1
SPC249,SPC,SK,visual_auditory,2,141,nomask,auditory_word,neutral,neutral,left,282.437463058,left,1
SPC249,SPC,SK,visual_auditory,2,142,nomask,auditory_word,invalid,left,up,395.19325248,up,1
SPC249,SPC,SK,visual_auditory,2,143,nomask,visual_word,valid,left,left,341.961493483,left,1
SPC249,SPC,SK,visual_auditory,2,144,nomask,visual_word,valid,left,left,425.723476801,left,1
SPC249,SPC,SK,visual_auditory,2,145,nomask,visual_word,valid,left,left,314.771697973,left,1
SPC249,SPC,SK,visual_auditory,2,146,nomask,auditory_word,valid,right,right,367.520125466,right,1
SPC249,SPC,SK,visual_auditory,2,147,nomask,auditory_word,valid,left,left,312.940479838,left,1
SPC249,SPC,SK,visual_auditory,2,148,nomask,auditory_word,valid,left,left,333.719251677,left,1
SPC249,SPC,SK,visual_auditory,2,149,nomask,auditory_word,valid,right,right,314.477858017,right,1
SPC249,SPC,SK,visual_auditory,2,150,nomask,visual_word,valid,right,right,344.551958144,right,1
SPC249,SPC,SK,visual_auditory,2,151,nomask,auditory_word,valid,right,right,446.278187679,right,1
SPC249,SPC,SK,visual_auditory,2,152,nomask,visual_word,valid,right,right,285.037210095,right,1
SPC249,SPC,SK,visual_auditory,2,153,nomask,auditory_word,valid,left,left,289.79306377,left,1
SPC249,SPC,SK,visual_auditory,2,154,nomask,auditory_word,valid,left,left,281.88435256,left,1
SPC249,SPC,SK,visual_auditory,2,155,nomask,auditory_word,valid,left,left,322.256613756,left,1
SPC249,SPC,SK,visual_auditory,2,156,nomask,auditory_word,valid,left,left,351.675175596,left,1
SPC249,SPC,SK,visual_auditory,2,157,nomask,auditory_word,valid,right,right,273.745818879,right,1
SPC249,SPC,SK,visual_auditory,2,158,nomask,visual_word,valid,left,left,271.855064668,left,1
SPC249,SPC,SK,visual_auditory,2,159,nomask,visual_word,valid,left,left,301.24353827,left,1
SPC249,SPC,SK,visual_auditory,2,160,nomask,visual_word,valid,right,right,292.683449807,right,1
SPC249,SPC,SK,visual_auditory,2,161,nomask,visual_word,valid,left,left,323.414048646,left,1
SPC249,SPC,SK,visual_auditory,2,162,nomask,visual_word,valid,right,right,328.818078502,right,1
SPC249,SPC,SK,visual_auditory,2,163,nomask,auditory_word,invalid,right,left,302.568058483,left,1
SPC249,SPC,SK,visual_auditory,2,164,nomask,auditory_word,invalid,right,left,300.337051624,left,1
SPC249,SPC,SK,visual_auditory,2,165,nomask,auditory_word,valid,left,left,332.104412373,left,1
SPC249,SPC,SK,visual_auditory,2,166,nomask,visual_word,valid,left,left,290.842629154,left,1
SPC249,SPC,SK,visual_auditory,2,167,nomask,auditory_word,valid,left,left,281.888513709,left,1
SPC249,SPC,SK,visual_auditory,2,168,nomask,auditory_word,invalid,left,up,354.305331013,up,1
SPC249,SPC,SK,visual_auditory,2,169,nomask,auditory_word,invalid,left,up,503.744058427,up,1
SPC249,SPC,SK,visual_auditory,2,170,nomask,visual_word,valid,left,left,292.193716741,left,1
SPC249,SPC,SK,visual_auditory,2,171,nomask,visual_word,valid,left,left,300.592481159,left,1
SPC249,SPC,SK,visual_auditory,2,172,nomask,visual_word,invalid,left,down,465.29488021,down,1
SPC249,SPC,SK,visual_auditory,2,173,nomask,auditory_word,valid,right,right,250.05681545,right,1
SPC249,SPC,SK,visual_auditory,2,174,nomask,auditory_word,valid,right,right,377.475153189,right,1
SPC249,SPC,SK,visual_auditory,2,175,nomask,auditory_word,valid,left,left,333.910663729,left,1
SPC249,SPC,SK,visual_auditory,2,176,nomask,visual_word,valid,right,right,484.004929313,right,1
SPC249,SPC,SK,visual_auditory,2,177,nomask,auditory_word,valid,right,right,353.72501309,right,1
SPC249,SPC,SK,visual_auditory,2,178,nomask,visual_word,invalid,left,right,316.80489087,right,1
SPC249,SPC,SK,visual_auditory,2,179,nomask,auditory_word,valid,left,left,297.930637025,left,1
SPC249,SPC,SK,visual_auditory,2,180,nomask,visual_word,valid,left,left,416.661171825,left,1
SPC249,SPC,SK,visual_auditory,2,181,nomask,auditory_word,invalid,right,up,281.742233899,up,1
SPC249,SPC,SK,visual_auditory,2,182,nomask,auditory_word,valid,left,left,321.138869855,left,1
SPC249,SPC,SK,visual_auditory,2,183,nomask,auditory_word,valid,right,right,213.887297316,right,1
SPC249,SPC,SK,visual_auditory,2,184,nomask,visual_word,neutral,neutral,left,303.305859212,left,1
SPC249,SPC,SK,visual_auditory,2,185,nomask,auditory_word,valid,left,left,916.054286761,right,0
SPC249,SPC,SK,visual_auditory,2,186,nomask,visual_word,invalid,right,down,458.175503765,down,1
SPC249,SPC,SK,visual_auditory,2,187,nomask,visual_word,valid,left,left,328.589216224,left,1
SPC249,SPC,SK,visual_auditory,2,188,nomask,visual_word,valid,left,left,395.315205795,left,1
SPC249,SPC,SK,visual_auditory,2,189,nomask,auditory_word,valid,right,right,301.053086412,right,1
SPC249,SPC,SK,visual_auditory,2,190,nomask,visual_word,invalid,right,left,276.490885532,left,1
SPC249,SPC,SK,visual_auditory,3,191,nomask,visual_word,valid,left,left,265.511899255,left,1
SPC249,SPC,SK,visual_auditory,3,192,nomask,visual_word,valid,right,right,343.617944047,right,1
SPC249,SPC,SK,visual_auditory,3,193,nomask,visual_word,invalid,right,up,290.044652182,up,1
SPC249,SPC,SK,visual_auditory,3,194,nomask,auditory_word,valid,left,left,298.423251137,left,1
SPC249,SPC,SK,visual_auditory,3,195,nomask,auditory_word,valid,right,right,240.493574296,right,1
SPC249,SPC,SK,visual_auditory,3,196,nomask,visual_word,valid,left,left,264.556119335,left,1
SPC249,SPC,SK,visual_auditory,3,197,nomask,auditory_word,invalid,left,down,446.322039585,down,1
SPC249,SPC,SK,visual_auditory,3,198,nomask,visual_word,valid,left,left,256.436790805,left,1
SPC249,SPC,SK,visual_auditory,3,199,nomask,auditory_word,invalid,right,up,329.832114279,up,1
SPC249,SPC,SK,visual_auditory,3,200,nomask,visual_word,valid,left,left,292.903349735,left,1
SPC249,SPC,SK,visual_auditory,3,201,nomask,visual_word,invalid,left,right,257.975769462,right,1
SPC249,SPC,SK,visual_auditory,3,202,nomask,auditory_word,invalid,left,down,449.065825902,down,1
SPC249,SPC,SK,visual_auditory,3,203,nomask,auditory_word,valid,right,right,279.489781242,right,1
SPC249,SPC,SK,visual_auditory,3,204,nomask,visual_word,valid,left,left,284.921658691,left,1
SPC249,SPC,SK,visual_auditory,3,205,nomask,auditory_word,invalid,left,right,321.634684573,right,1
SPC249,SPC,SK,visual_auditory,3,206,nomask,auditory_word,valid,left,left,286.384456558,left,1
SPC249,SPC,SK,visual_auditory,3,207,nomask,visual_word,invalid,right,up,340.811420698,up,1
SPC249,SPC,SK,visual_auditory,3,208,nomask,auditory_word,neutral,neutral,right,305.250067962,right,1
SPC249,SPC,SK,visual_auditory,3,209,nomask,visual_word,valid,right,right,479.668069631,right,1
SPC249,SPC,SK,visual_auditory,3,210,nomask,auditory_word,valid,right,right,336.740873521,right,1
SPC249,SPC,SK,visual_auditory,3,211,nomask,visual_word,invalid,left,down,396.785045508,down,1
SPC249,SPC,SK,visual_auditory,3,212,nomask,auditory_word,invalid,right,down,437.906950712,down,1
SPC249,SPC,SK,visual_auditory,3,213,nomask,auditory_word,invalid,left,up,310.014884104,up,1
SPC249,SPC,SK,visual_auditory,3,214,nomask,auditory_word,valid,right,right,259.114639135,right,1
SPC249,SPC,SK,visual_auditory,3,215,nomask,visual_word,valid,left,left,299.146647914,left,1
SPC249,SPC,SK,visual_auditory,3,216,nomask,auditory_word,invalid,left,up,312.540050829,up,1
SPC249,SPC,SK,visual_auditory,3,217,nomask,auditory_word,invalid,left,down,327.648160281,down,1
SPC249,SPC,SK,visual_auditory,3,218,nomask,auditory_word,valid,left,left,298.714530421,left,1
SPC249,SPC,SK,visual_auditory,3,219,nomask,visual_word,invalid,right,up,294.822911848,up,1
SPC249,SPC,SK,visual_auditory,3,220,nomask,auditory_word,invalid,right,left,299.927980406,left,1
SPC249,SPC,SK,visual_auditory,3,221,nomask,visual_word,valid,right,right,313.279772061,right,1
SPC249,SPC,SK,visual_auditory,3,222,nomask,visual_word,neutral,neutral,left,318.728934275,left,1
SPC249,SPC,SK,visual_auditory,3,223,nomask,auditory_word,valid,left,left,306.820735219,left,1
SPC249,SPC,SK,visual_auditory,3,224,nomask,visual_word,valid,right,right,305.230542668,right,1
SPC249,SPC,SK,visual_auditory,3,225,nomask,auditory_word,valid,right,right,345.313765341,right,1
SPC249,SPC,SK,visual_auditory,3,226,nomask,auditory_word,valid,left,left,294.049901539,left,1
SPC249,SPC,SK,visual_auditory,3,227,nomask,visual_word,valid,left,left,339.439527481,left,1
SPC249,SPC,SK,visual_auditory,3,228,nomask,auditory_word,invalid,right,up,343.191908207,up,1
SPC249,SPC,SK,visual_auditory,3,229,nomask,visual_word,valid,left,left,369.630459463,left,1
SPC249,SPC,SK,visual_auditory,3,230,nomask,visual_word,invalid,left,right,338.707168354,right,1
SPC249,SPC,SK,visual_auditory,3,231,nomask,visual_word,valid,right,right,350.444120821,right,1
SPC249,SPC,SK,visual_auditory,3,232,nomask,visual_word,valid,right,right,328.520077397,right,1
SPC249,SPC,SK,visual_auditory,3,233,nomask,auditory_word,valid,right,right,358.645071392,right,1
SPC249,SPC,SK,visual_auditory,3,234,nomask,auditory_word,valid,right,right,315.403229673,right,1
SPC249,SPC,SK,visual_auditory,3,235,nomask,visual_word,invalid,left,down,417.110894108,down,1
SPC249,SPC,SK,visual_auditory,3,236,nomask,auditory_word,valid,left,left,264.531152556,left,1
SPC249,SPC,SK,visual_auditory,3,237,nomask,visual_word,valid,right,right,313.599859132,right,1
SPC249,SPC,SK,visual_auditory,3,238,nomask,visual_word,valid,right,right,272.692092345,right,1
SPC249,SPC,SK,visual_auditory,3,239,nomask,auditory_word,neutral,neutral,left,350.458844914,left,1
SPC249,SPC,SK,visual_auditory,3,240,nomask,visual_word,neutral,neutral,right,314.907734864,right,1
SPC249,SPC,SK,visual_auditory,3,241,nomask,auditory_word,valid,right,right,270.628811093,right,1
SPC249,SPC,SK,visual_auditory,3,242,nomask,auditory_word,invalid,right,left,301.666053128,left,1
SPC249,SPC,SK,visual_auditory,3,243,nomask,visual_word,neutral,neutral,left,356.095577939,left,1
SPC249,SPC,SK,visual_auditory,3,244,nomask,visual_word,invalid,right,left,296.535057598,left,1
SPC249,SPC,SK,visual_auditory,3,245,nomask,visual_word,valid,left,left,285.291359178,left,1
SPC249,SPC,SK,visual_auditory,3,246,nomask,visual_word,valid,left,left,330.700830673,left,1
SPC249,SPC,SK,visual_auditory,3,247,nomask,visual_word,valid,right,right,279.756413773,right,1
SPC249,SPC,SK,visual_auditory,3,248,nomask,visual_word,valid,right,right,381.190723856,right,1
SPC249,SPC,SK,visual_auditory,3,249,nomask,auditory_word,valid,left,left,333.938831347,left,1
SPC249,SPC,SK,visual_auditory,3,250,nomask,auditory_word,valid,left,left,298.688923358,left,1
SPC249,SPC,SK,visual_auditory,3,251,nomask,visual_word,valid,right,right,342.771633877,right,1
SPC249,SPC,SK,visual_auditory,3,252,nomask,auditory_word,invalid,left,right,356.857705279,right,1
SPC249,SPC,SK,visual_auditory,3,253,nomask,visual_word,invalid,right,left,273.260566872,left,1
SPC249,SPC,SK,visual_auditory,3,254,nomask,visual_word,valid,right,right,310.69026771,right,1
SPC249,SPC,SK,visual_auditory,3,255,nomask,visual_word,valid,right,right,362.78347706,right,1
SPC249,SPC,SK,visual_auditory,3,256,nomask,auditory_word,neutral,neutral,right,300.554070738,up,0
SPC249,SPC,SK,visual_auditory,3,257,nomask,auditory_word,invalid,left,right,268.263047561,right,1
SPC249,SPC,SK,visual_auditory,3,258,nomask,visual_word,valid,left,left,306.661972078,left,1
SPC249,SPC,SK,visual_auditory,3,259,nomask,visual_word,valid,left,left,346.409103251,left,1
SPC249,SPC,SK,visual_auditory,3,260,nomask,auditory_word,neutral,neutral,right,294.177616248,right,1
SPC249,SPC,SK,visual_auditory,3,261,nomask,auditory_word,valid,right,right,254.634380573,right,1
SPC249,SPC,SK,visual_auditory,3,262,nomask,visual_word,neutral,neutral,left,270.041771349,left,1
SPC249,SPC,SK,visual_auditory,3,263,nomask,auditory_word,valid,right,right,204.068306601,right,1
SPC249,SPC,SK,visual_auditory,3,264,nomask,auditory_word,valid,left,left,255.482611246,left,1
SPC249,SPC,SK,visual_auditory,3,265,nomask,auditory_word,valid,right,right,121.216010768,right,1
SPC249,SPC,SK,visual_auditory,3,266,nomask,visual_word,invalid,left,down,391.642846866,right,0
SPC249,SPC,SK,visual_auditory,3,267,nomask,auditory_word,valid,left,left,346.733991639,left,1
SPC249,SPC,SK,visual_auditory,3,268,nomask,auditory_word,invalid,left,right,326.097978628,right,1
SPC249,SPC,SK,visual_auditory,3,269,nomask,auditory_word,valid,left,left,316.543059773,left,1
SPC249,SPC,SK,visual_auditory,3,270,nomask,visual_word,valid,left,left,335.948658059,left,1
SPC249,SPC,SK,visual_auditory,3,271,nomask,visual_word,neutral,neutral,right,339.70776049,right,1
SPC249,SPC,SK,visual_auditory,3,272,nomask,auditory_word,invalid,right,down,430.84711046,down,1
SPC249,SPC,SK,visual_auditory,3,273,nomask,visual_word,valid,right,right,373.579373583,right,1
SPC249,SPC,SK,visual_auditory,3,274,nomask,auditory_word,valid,right,right,367.294144002,right,1
SPC249,SPC,SK,visual_auditory,3,275,nomask,visual_word,valid,left,left,371.384216473,left,1
SPC249,SPC,SK,visual_auditory,3,276,nomask,visual_word,valid,right,right,309.155450319,right,1
SPC249,SPC,SK,visual_auditory,3,277,nomask,auditory_word,invalid,left,right,505.229262286,right,1
SPC249,SPC,SK,visual_auditory,3,278,nomask,auditory_word,invalid,right,left,317.311588791,left,1
SPC249,SPC,SK,visual_auditory,3,279,nomask,auditory_word,valid,left,left,440.722436528,left,1
SPC249,SPC,SK,visual_auditory,3,280,nomask,visual_word,valid,right,right,311.847062432,right,1
SPC249,SPC,SK,visual_auditory,3,281,nomask,visual_word,valid,left,left,254.576124717,left,1
SPC249,SPC,SK,visual_auditory,3,282,nomask,auditory_word,valid,left,left,309.990877518,left,1
SPC249,SPC,SK,visual_auditory,3,283,nomask,visual_word,valid,left,left,317.090408644,left,1
SPC249,SPC,SK,visual_auditory,3,284,nomask,visual_word,valid,right,right,312.45170685,right,1
SPC249,SPC,SK,visual_auditory,3,285,nomask,visual_word,valid,right,right,486.211929587,right,1
SPC249,SPC,SK,visual_auditory,3,286,nomask,visual_word,valid,right,right,221.642046701,right,1
SPC249,SPC,SK,visual_auditory,3,287,nomask,visual_word,valid,left,left,311.04492431,left,1
SPC249,SPC,SK,visual_auditory,3,288,nomask,auditory_word,invalid,right,left,362.786357873,left,1
SPC249,SPC,SK,visual_auditory,3,289,nomask,visual_word,valid,left,left,526.213850244,left,1
SPC249,SPC,SK,visual_auditory,3,290,nomask,visual_word,valid,right,right,274.281964637,right,1
SPC249,SPC,SK,visual_auditory,3,291,nomask,auditory_word,valid,left,left,264.712961856,left,1
SPC249,SPC,SK,visual_auditory,3,292,nomask,visual_word,valid,right,right,263.480946887,right,1
SPC249,SPC,SK,visual_auditory,3,293,nomask,auditory_word,valid,left,left,295.917289564,left,1
SPC249,SPC,SK,visual_auditory,3,294,nomask,auditory_word,invalid,right,left,293.645311496,left,1
SPC249,SPC,SK,visual_auditory,3,295,nomask,visual_word,valid,right,right,292.689531576,right,1
SPC249,SPC,SK,visual_auditory,3,296,nomask,visual_word,valid,right,right,333.101163502,right,1
SPC249,SPC,SK,visual_auditory,3,297,nomask,visual_word,invalid,left,right,2002.18075316,left,0
SPC249,SPC,SK,visual_auditory,3,298,nomask,visual_word,valid,left,left,342.055919231,left,1
SPC249,SPC,SK,visual_auditory,3,299,nomask,auditory_word,valid,left,left,332.422898966,left,1
SPC249,SPC,SK,visual_auditory,3,300,nomask,visual_word,valid,right,right,273.820079048,right,1
SPC249,SPC,SK,visual_auditory,3,301,nomask,visual_word,valid,right,right,289.263639716,right,1
SPC249,SPC,SK,visual_auditory,3,302,nomask,visual_word,valid,left,left,334.010850871,left,1
