subj_id,sona_experiment_code,experimenter,cue_contrast,block,trial,mask_type,cue_type,cue_validity,cue_dir,target_loc,rt,response_type,is_correct
SPC202,SPC,NS,word_arrow,0,0,mask,visual_word,valid,right,right,2141.61739993,timeout,0
SPC202,SPC,NS,word_arrow,0,1,mask,visual_word,valid,right,right,240.908086998,down,0
SPC202,SPC,NS,word_arrow,0,2,mask,visual_word,valid,left,left,586.652689526,left,1
SPC202,SPC,NS,word_arrow,0,3,mask,visual_arrow,invalid,left,down,2116.63588494,timeout,0
SPC202,SPC,NS,word_arrow,0,4,mask,visual_word,invalid,right,up,207.722420484,down,0
SPC202,SPC,NS,word_arrow,0,5,mask,visual_arrow,valid,right,right,2116.61699982,timeout,0
SPC202,SPC,NS,word_arrow,0,6,mask,visual_arrow,valid,right,right,358.346110152,right,1
SPC202,SPC,NS,word_arrow,0,7,mask,visual_word,valid,left,left,354.772978229,left,1
SPC202,SPC,NS,word_arrow,0,8,mask,visual_arrow,invalid,right,down,821.86354688,right,0
SPC202,SPC,NS,word_arrow,0,9,mask,visual_word,valid,right,right,517.29366387,right,1
SPC202,SPC,NS,word_arrow,0,10,mask,visual_word,invalid,left,down,2116.63044349,timeout,0
SPC202,SPC,NS,word_arrow,0,11,mask,visual_word,valid,right,right,2024.37494998,right,1
SPC202,SPC,NS,word_arrow,0,12,mask,visual_word,invalid,left,down,385.540707066,down,1
SPC202,SPC,NS,word_arrow,0,13,mask,visual_arrow,valid,left,left,404.936382722,left,1
SPC202,SPC,NS,word_arrow,0,14,mask,visual_arrow,valid,left,left,2116.60803738,timeout,0
SPC202,SPC,NS,word_arrow,1,15,mask,visual_arrow,valid,right,right,403.186786803,right,1
SPC202,SPC,NS,word_arrow,1,16,mask,visual_word,valid,right,right,475.607125147,right,1
SPC202,SPC,NS,word_arrow,1,17,mask,visual_arrow,valid,right,right,809.063265217,right,1
SPC202,SPC,NS,word_arrow,1,18,mask,visual_arrow,valid,left,left,287.479794526,left,1
SPC202,SPC,NS,word_arrow,1,19,mask,visual_arrow,valid,right,right,2116.6147592,timeout,0
SPC202,SPC,NS,word_arrow,1,20,mask,visual_word,invalid,right,left,174.442968477,left,1
SPC202,SPC,NS,word_arrow,1,21,mask,visual_word,valid,right,right,2116.60611688,timeout,0
SPC202,SPC,NS,word_arrow,1,22,mask,visual_arrow,valid,right,right,2116.65573035,timeout,0
SPC202,SPC,NS,word_arrow,1,23,mask,visual_word,valid,right,right,1297.28118048,right,1
SPC202,SPC,NS,word_arrow,1,24,mask,visual_arrow,valid,left,left,136.120224692,left,1
SPC202,SPC,NS,word_arrow,1,25,mask,visual_arrow,valid,right,right,1091.14959271,right,1
SPC202,SPC,NS,word_arrow,1,26,mask,visual_arrow,valid,right,right,161.291551311,right,1
SPC202,SPC,NS,word_arrow,1,27,mask,visual_word,valid,left,left,252.98209113,left,1
SPC202,SPC,NS,word_arrow,1,28,mask,visual_word,valid,left,left,898.767024628,left,1
SPC202,SPC,NS,word_arrow,1,29,mask,visual_word,valid,right,right,248.834723054,right,1
SPC202,SPC,NS,word_arrow,1,30,mask,visual_arrow,valid,right,right,1768.61450315,right,1
SPC202,SPC,NS,word_arrow,1,31,mask,visual_word,valid,right,right,171.760318801,right,1
SPC202,SPC,NS,word_arrow,1,32,mask,visual_word,valid,right,right,2004.80610726,right,1
SPC202,SPC,NS,word_arrow,1,33,mask,visual_arrow,valid,left,left,261.93268568,left,1
SPC202,SPC,NS,word_arrow,1,34,mask,visual_word,invalid,right,left,246.396299801,right,0
SPC202,SPC,NS,word_arrow,1,35,mask,visual_word,invalid,right,down,252.803482552,right,0
SPC202,SPC,NS,word_arrow,1,36,mask,visual_arrow,valid,right,right,213.882496057,right,1
SPC202,SPC,NS,word_arrow,1,37,mask,visual_arrow,invalid,left,down,165.960021142,left,0
SPC202,SPC,NS,word_arrow,1,38,mask,visual_word,neutral,neutral,left,655.715954752,left,1
SPC202,SPC,NS,word_arrow,1,39,mask,visual_arrow,valid,right,right,205.840948736,right,1
SPC202,SPC,NS,word_arrow,1,40,mask,visual_arrow,invalid,left,right,271.90851912,left,0
SPC202,SPC,NS,word_arrow,1,41,mask,visual_word,valid,left,left,369.003729022,left,1
SPC202,SPC,NS,word_arrow,1,42,mask,visual_arrow,invalid,right,up,1645.364019,right,0
SPC202,SPC,NS,word_arrow,1,43,mask,visual_arrow,valid,right,right,555.871196964,right,1
SPC202,SPC,NS,word_arrow,1,44,mask,visual_arrow,valid,left,left,2116.62372164,timeout,0
SPC202,SPC,NS,word_arrow,1,45,mask,visual_word,invalid,right,left,1146.42382727,down,0
SPC202,SPC,NS,word_arrow,1,46,mask,visual_word,valid,right,right,1380.18725094,right,1
SPC202,SPC,NS,word_arrow,1,47,mask,visual_word,valid,left,left,2116.6230815,timeout,0
SPC202,SPC,NS,word_arrow,1,48,mask,visual_arrow,valid,right,right,1126.95325128,right,1
SPC202,SPC,NS,word_arrow,1,49,mask,visual_arrow,invalid,right,left,861.722068395,left,1
SPC202,SPC,NS,word_arrow,1,50,mask,visual_word,valid,left,left,669.865083299,left,1
SPC202,SPC,NS,word_arrow,1,51,mask,visual_word,valid,left,left,388.625066,left,1
SPC202,SPC,NS,word_arrow,1,52,mask,visual_arrow,neutral,neutral,right,359.675751824,right,1
SPC202,SPC,NS,word_arrow,1,53,mask,visual_arrow,valid,right,right,315.432677686,right,1
SPC202,SPC,NS,word_arrow,1,54,mask,visual_word,valid,right,right,352.190195728,right,1
SPC202,SPC,NS,word_arrow,1,55,mask,visual_word,invalid,right,up,540.62352961,up,1
SPC202,SPC,NS,word_arrow,1,56,mask,visual_arrow,invalid,left,right,472.338396037,right,1
SPC202,SPC,NS,word_arrow,1,57,mask,visual_word,valid,right,right,432.438583288,right,1
SPC202,SPC,NS,word_arrow,1,58,mask,visual_arrow,invalid,left,up,567.517884861,up,1
SPC202,SPC,NS,word_arrow,1,59,mask,visual_word,neutral,neutral,left,440.952259029,left,1
SPC202,SPC,NS,word_arrow,1,60,mask,visual_arrow,valid,left,left,824.397035991,right,0
SPC202,SPC,NS,word_arrow,1,61,mask,visual_arrow,invalid,right,down,649.803946668,down,1
SPC202,SPC,NS,word_arrow,1,62,mask,visual_arrow,valid,right,right,1167.88438457,up,0
SPC202,SPC,NS,word_arrow,1,63,mask,visual_word,neutral,neutral,right,393.35019124,right,1
SPC202,SPC,NS,word_arrow,1,64,mask,visual_word,valid,left,left,523.454699694,left,1
SPC202,SPC,NS,word_arrow,1,65,mask,visual_arrow,valid,right,right,367.875742202,right,1
SPC202,SPC,NS,word_arrow,1,66,mask,visual_word,valid,right,right,444.274442649,right,1
SPC202,SPC,NS,word_arrow,1,67,mask,visual_arrow,valid,left,left,1701.6778964,down,0
SPC202,SPC,NS,word_arrow,1,68,mask,visual_word,valid,left,left,1125.81982298,up,0
SPC202,SPC,NS,word_arrow,1,69,mask,visual_word,neutral,neutral,right,570.621769119,right,1
SPC202,SPC,NS,word_arrow,1,70,mask,visual_arrow,valid,left,left,118.009058438,right,0
SPC202,SPC,NS,word_arrow,1,71,mask,visual_arrow,invalid,left,right,1361.77616313,right,1
SPC202,SPC,NS,word_arrow,1,72,mask,visual_arrow,valid,right,right,1332.57430021,right,1
SPC202,SPC,NS,word_arrow,1,73,mask,visual_arrow,neutral,neutral,right,690.694748977,right,1
SPC202,SPC,NS,word_arrow,1,74,mask,visual_arrow,neutral,neutral,right,456.781844667,right,1
SPC202,SPC,NS,word_arrow,1,75,mask,visual_arrow,valid,left,left,1055.90480613,down,0
SPC202,SPC,NS,word_arrow,1,76,mask,visual_arrow,invalid,left,right,511.993342167,right,1
SPC202,SPC,NS,word_arrow,1,77,mask,visual_arrow,valid,right,right,543.069314852,right,1
SPC202,SPC,NS,word_arrow,1,78,mask,visual_word,valid,right,right,445.495574793,right,1
SPC202,SPC,NS,word_arrow,1,79,mask,visual_arrow,valid,left,left,447.232687293,left,1
SPC202,SPC,NS,word_arrow,1,80,mask,visual_arrow,valid,left,left,1238.67579983,right,0
SPC202,SPC,NS,word_arrow,1,81,mask,visual_arrow,valid,left,left,725.478930253,right,0
SPC202,SPC,NS,word_arrow,1,82,mask,visual_word,valid,right,right,480.904245953,right,1
SPC202,SPC,NS,word_arrow,1,83,mask,visual_word,valid,left,left,558.650512947,left,1
SPC202,SPC,NS,word_arrow,1,84,mask,visual_arrow,invalid,left,up,1377.72834211,up,1
SPC202,SPC,NS,word_arrow,1,85,mask,visual_arrow,valid,right,right,596.86698782,right,1
SPC202,SPC,NS,word_arrow,1,86,mask,visual_word,neutral,neutral,left,533.652993618,left,1
SPC202,SPC,NS,word_arrow,1,87,mask,visual_word,valid,left,left,564.08527118,left,1
SPC202,SPC,NS,word_arrow,1,88,mask,visual_arrow,invalid,right,down,785.135156766,down,1
SPC202,SPC,NS,word_arrow,1,89,mask,visual_arrow,valid,left,left,724.893491017,left,1
SPC202,SPC,NS,word_arrow,1,90,mask,visual_arrow,valid,left,left,578.340668668,left,1
SPC202,SPC,NS,word_arrow,1,91,mask,visual_arrow,valid,left,left,566.12646638,left,1
SPC202,SPC,NS,word_arrow,1,92,mask,visual_word,invalid,right,up,664.836195443,up,1
SPC202,SPC,NS,word_arrow,1,93,mask,visual_word,neutral,neutral,right,670.946977567,right,1
SPC202,SPC,NS,word_arrow,1,94,mask,visual_arrow,invalid,right,up,688.027463475,up,1
SPC202,SPC,NS,word_arrow,1,95,mask,visual_arrow,valid,left,left,960.812380974,down,0
SPC202,SPC,NS,word_arrow,1,96,mask,visual_arrow,valid,right,right,844.559000048,left,0
SPC202,SPC,NS,word_arrow,1,97,mask,visual_arrow,valid,left,left,427.6852904,left,1
SPC202,SPC,NS,word_arrow,1,98,mask,visual_arrow,valid,left,left,452.757710096,left,1
SPC202,SPC,NS,word_arrow,1,99,mask,visual_word,valid,left,left,614.173775277,left,1
SPC202,SPC,NS,word_arrow,1,100,mask,visual_arrow,invalid,right,down,519.655266224,down,1
SPC202,SPC,NS,word_arrow,1,101,mask,visual_arrow,valid,left,left,437.377206603,left,1
SPC202,SPC,NS,word_arrow,1,102,mask,visual_word,invalid,left,right,431.448554009,right,1
SPC202,SPC,NS,word_arrow,1,103,mask,visual_arrow,valid,left,left,423.884896707,left,1
SPC202,SPC,NS,word_arrow,1,104,mask,visual_word,valid,left,left,706.632203946,left,1
SPC202,SPC,NS,word_arrow,1,105,mask,visual_word,valid,left,left,680.738120776,left,1
SPC202,SPC,NS,word_arrow,1,106,mask,visual_word,valid,left,left,480.155242229,left,1
SPC202,SPC,NS,word_arrow,1,107,mask,visual_arrow,valid,left,left,744.906294509,down,0
SPC202,SPC,NS,word_arrow,1,108,mask,visual_word,valid,right,right,1366.96669494,down,0
SPC202,SPC,NS,word_arrow,1,109,mask,visual_arrow,valid,left,left,362.5011603,left,1
SPC202,SPC,NS,word_arrow,1,110,mask,visual_word,valid,right,right,526.873869705,right,1
SPC202,SPC,NS,word_arrow,1,111,mask,visual_word,valid,right,right,443.952755159,right,1
SPC202,SPC,NS,word_arrow,2,112,mask,visual_arrow,valid,right,right,330.513579713,right,1
SPC202,SPC,NS,word_arrow,2,113,mask,visual_arrow,valid,left,left,135.601683636,left,1
SPC202,SPC,NS,word_arrow,2,114,mask,visual_word,invalid,left,down,566.339644371,down,1
SPC202,SPC,NS,word_arrow,2,115,mask,visual_arrow,invalid,left,down,642.432341585,down,1
SPC202,SPC,NS,word_arrow,2,116,mask,visual_word,invalid,right,left,636.221692315,down,0
SPC202,SPC,NS,word_arrow,2,117,mask,visual_word,invalid,left,down,454.33637948,down,1
SPC202,SPC,NS,word_arrow,2,118,mask,visual_word,valid,left,left,540.702271013,left,1
SPC202,SPC,NS,word_arrow,2,119,mask,visual_arrow,valid,left,left,474.463774153,left,1
SPC202,SPC,NS,word_arrow,2,120,mask,visual_word,invalid,right,left,426.550261676,left,1
SPC202,SPC,NS,word_arrow,2,121,mask,visual_word,valid,left,left,394.340220548,left,1
SPC202,SPC,NS,word_arrow,2,122,mask,visual_word,valid,left,left,437.394171226,left,1
SPC202,SPC,NS,word_arrow,2,123,mask,visual_arrow,valid,right,right,461.46791926,right,1
SPC202,SPC,NS,word_arrow,2,124,mask,visual_arrow,valid,right,right,460.887921508,right,1
SPC202,SPC,NS,word_arrow,2,125,mask,visual_word,valid,right,right,395.641054376,right,1
SPC202,SPC,NS,word_arrow,2,126,mask,visual_word,valid,left,left,500.762767479,left,1
SPC202,SPC,NS,word_arrow,2,127,mask,visual_word,neutral,neutral,right,788.836963649,right,1
SPC202,SPC,NS,word_arrow,2,128,mask,visual_word,valid,right,right,1046.91099978,down,0
SPC202,SPC,NS,word_arrow,2,129,mask,visual_arrow,valid,left,left,437.385528872,left,1
SPC202,SPC,NS,word_arrow,2,130,mask,visual_arrow,neutral,neutral,right,375.478450151,right,1
SPC202,SPC,NS,word_arrow,2,131,mask,visual_arrow,invalid,right,left,385.549989587,left,1
SPC202,SPC,NS,word_arrow,2,132,mask,visual_word,invalid,left,right,522.299185366,right,1
SPC202,SPC,NS,word_arrow,2,133,mask,visual_arrow,valid,left,left,566.379335185,left,1
SPC202,SPC,NS,word_arrow,2,134,mask,visual_word,valid,left,left,449.496663088,left,1
SPC202,SPC,NS,word_arrow,2,135,mask,visual_word,valid,right,right,427.578381321,right,1
SPC202,SPC,NS,word_arrow,2,136,mask,visual_arrow,invalid,right,down,890.981867065,down,1
SPC202,SPC,NS,word_arrow,2,137,mask,visual_word,valid,right,right,586.437270947,right,1
SPC202,SPC,NS,word_arrow,2,138,mask,visual_word,valid,right,right,491.179680888,right,1
SPC202,SPC,NS,word_arrow,2,139,mask,visual_word,valid,left,left,439.614295115,left,1
SPC202,SPC,NS,word_arrow,2,140,mask,visual_arrow,neutral,neutral,left,471.038842545,left,1
SPC202,SPC,NS,word_arrow,2,141,mask,visual_word,valid,right,right,1022.43394201,down,0
SPC202,SPC,NS,word_arrow,2,142,mask,visual_arrow,valid,right,right,415.557191562,right,1
SPC202,SPC,NS,word_arrow,2,143,mask,visual_word,valid,left,left,498.304818932,left,1
SPC202,SPC,NS,word_arrow,2,144,mask,visual_arrow,valid,left,left,535.404830123,left,1
SPC202,SPC,NS,word_arrow,2,145,mask,visual_arrow,invalid,right,left,868.85648896,down,0
SPC202,SPC,NS,word_arrow,2,146,mask,visual_word,neutral,neutral,right,458.600579383,right,1
SPC202,SPC,NS,word_arrow,2,147,mask,visual_word,invalid,left,down,658.351231541,down,1
SPC202,SPC,NS,word_arrow,2,148,mask,visual_arrow,valid,left,left,448.103964271,left,1
SPC202,SPC,NS,word_arrow,2,149,mask,visual_word,valid,right,right,649.527071364,right,1
SPC202,SPC,NS,word_arrow,2,150,mask,visual_arrow,valid,right,right,472.983371466,right,1
SPC202,SPC,NS,word_arrow,2,151,mask,visual_word,invalid,left,down,656.711105403,down,1
SPC202,SPC,NS,word_arrow,2,152,mask,visual_arrow,valid,left,left,361.472080403,down,0
SPC202,SPC,NS,word_arrow,2,153,mask,visual_word,valid,left,left,596.559064055,left,1
SPC202,SPC,NS,word_arrow,2,154,mask,visual_arrow,valid,right,right,381.336043414,right,1
SPC202,SPC,NS,word_arrow,2,155,mask,visual_arrow,valid,left,left,367.783237016,left,1
SPC202,SPC,NS,word_arrow,2,156,mask,visual_arrow,valid,left,left,1051.48504392,left,1
SPC202,SPC,NS,word_arrow,2,157,mask,visual_word,valid,left,left,473.939791642,left,1
SPC202,SPC,NS,word_arrow,2,158,mask,visual_word,valid,left,left,362.35744122,left,1
SPC202,SPC,NS,word_arrow,2,159,mask,visual_word,valid,left,left,447.82068723,left,1
SPC202,SPC,NS,word_arrow,2,160,mask,visual_arrow,invalid,left,right,929.897412105,left,0
SPC202,SPC,NS,word_arrow,2,161,mask,visual_arrow,invalid,left,down,1462.60134759,down,1
SPC202,SPC,NS,word_arrow,2,162,mask,visual_arrow,invalid,left,down,592.411375896,down,1
SPC202,SPC,NS,word_arrow,2,163,mask,visual_word,valid,left,left,498.203671392,left,1
SPC202,SPC,NS,word_arrow,2,164,mask,visual_word,valid,right,right,322.291183198,right,1
SPC202,SPC,NS,word_arrow,2,165,mask,visual_word,valid,left,left,353.011859203,left,1
SPC202,SPC,NS,word_arrow,2,166,mask,visual_word,neutral,neutral,left,452.75386906,left,1
SPC202,SPC,NS,word_arrow,2,167,mask,visual_word,valid,right,right,542.189075408,right,1
SPC202,SPC,NS,word_arrow,2,168,mask,visual_arrow,valid,left,left,467.279099918,left,1
SPC202,SPC,NS,word_arrow,2,169,mask,visual_word,valid,right,right,428.36035401,right,1
SPC202,SPC,NS,word_arrow,2,170,mask,visual_arrow,valid,right,right,597.431301314,right,1
SPC202,SPC,NS,word_arrow,2,171,mask,visual_arrow,neutral,neutral,left,471.194084792,left,1
SPC202,SPC,NS,word_arrow,2,172,mask,visual_arrow,invalid,right,left,423.956916289,left,1
SPC202,SPC,NS,word_arrow,2,173,mask,visual_word,valid,left,left,2116.64004609,timeout,0
SPC202,SPC,NS,word_arrow,2,174,mask,visual_word,neutral,neutral,left,409.576684877,left,1
SPC202,SPC,NS,word_arrow,2,175,mask,visual_word,valid,right,right,475.963061937,right,1
SPC202,SPC,NS,word_arrow,2,176,mask,visual_word,valid,right,right,603.377878782,right,1
SPC202,SPC,NS,word_arrow,2,177,mask,visual_arrow,valid,left,left,436.16791768,left,1
SPC202,SPC,NS,word_arrow,2,178,mask,visual_word,invalid,right,up,909.239633183,down,0
SPC202,SPC,NS,word_arrow,2,179,mask,visual_arrow,valid,right,right,1100.32520845,down,0
SPC202,SPC,NS,word_arrow,2,180,mask,visual_word,valid,right,right,723.443496623,right,1
SPC202,SPC,NS,word_arrow,2,181,mask,visual_arrow,valid,right,right,446.892754815,right,1
SPC202,SPC,NS,word_arrow,2,182,mask,visual_word,invalid,right,down,630.321527453,down,1
SPC202,SPC,NS,word_arrow,2,183,mask,visual_word,neutral,neutral,left,936.051085882,right,0
SPC202,SPC,NS,word_arrow,2,184,mask,visual_arrow,valid,left,left,870.827905193,right,0
SPC202,SPC,NS,word_arrow,2,185,mask,visual_word,valid,right,right,733.937551006,down,0
SPC202,SPC,NS,word_arrow,2,186,mask,visual_word,invalid,left,right,425.755485514,right,1
SPC202,SPC,NS,word_arrow,2,187,mask,visual_word,valid,left,left,505.469007563,left,1
SPC202,SPC,NS,word_arrow,2,188,mask,visual_word,valid,right,right,814.891730552,down,0
SPC202,SPC,NS,word_arrow,2,189,mask,visual_arrow,invalid,left,up,704.653745808,up,1
SPC202,SPC,NS,word_arrow,2,190,mask,visual_arrow,valid,left,left,519.750652165,left,1
SPC202,SPC,NS,word_arrow,2,191,mask,visual_word,invalid,left,up,726.512811496,up,1
SPC202,SPC,NS,word_arrow,2,192,mask,visual_word,invalid,left,right,594.285805739,right,1
SPC202,SPC,NS,word_arrow,2,193,mask,visual_arrow,neutral,neutral,left,634.697757807,left,1
SPC202,SPC,NS,word_arrow,2,194,mask,visual_word,valid,right,right,532.126818493,right,1
SPC202,SPC,NS,word_arrow,2,195,mask,visual_word,invalid,left,down,728.901621245,down,1
SPC202,SPC,NS,word_arrow,2,196,mask,visual_arrow,invalid,left,right,548.303378513,right,1
SPC202,SPC,NS,word_arrow,2,197,mask,visual_word,invalid,left,right,697.742425924,right,1
SPC202,SPC,NS,word_arrow,2,198,mask,visual_word,valid,left,left,865.49173377,left,1
SPC202,SPC,NS,word_arrow,2,199,mask,visual_word,valid,left,left,630.953059212,left,1
SPC202,SPC,NS,word_arrow,2,200,mask,visual_word,invalid,right,down,1175.03737018,down,1
SPC202,SPC,NS,word_arrow,2,201,mask,visual_arrow,valid,right,right,809.141686535,right,1
SPC202,SPC,NS,word_arrow,2,202,mask,visual_arrow,valid,left,left,684.917497565,left,1
SPC202,SPC,NS,word_arrow,2,203,mask,visual_arrow,valid,right,right,2019.99103755,right,1
SPC202,SPC,NS,word_arrow,2,204,mask,visual_word,valid,left,left,868.187186919,right,0
SPC202,SPC,NS,word_arrow,2,205,mask,visual_word,valid,left,left,619.269561314,left,1
SPC202,SPC,NS,word_arrow,2,206,mask,visual_word,invalid,right,up,652.686330694,left,0
SPC202,SPC,NS,word_arrow,2,207,mask,visual_arrow,valid,right,right,477.122737386,right,1
SPC202,SPC,NS,word_arrow,2,208,mask,visual_arrow,valid,right,right,725.585519249,left,0
SPC202,SPC,NS,word_arrow,2,209,mask,visual_arrow,valid,left,left,1412.29294369,right,0
SPC202,SPC,NS,word_arrow,3,210,mask,visual_word,valid,left,left,1025.27535491,left,1
SPC202,SPC,NS,word_arrow,3,211,mask,visual_arrow,invalid,right,up,985.077541089,down,0
SPC202,SPC,NS,word_arrow,3,212,mask,visual_arrow,invalid,right,up,500.840868714,right,0
SPC202,SPC,NS,word_arrow,3,213,mask,visual_word,valid,left,left,458.918425807,left,1
SPC202,SPC,NS,word_arrow,3,214,mask,visual_word,valid,right,right,580.008002173,right,1
SPC202,SPC,NS,word_arrow,3,215,mask,visual_arrow,invalid,left,down,615.450282494,down,1
SPC202,SPC,NS,word_arrow,3,216,mask,visual_arrow,valid,left,left,457.901829301,left,1
SPC202,SPC,NS,word_arrow,3,217,mask,visual_word,invalid,right,left,656.951170706,left,1
SPC202,SPC,NS,word_arrow,3,218,mask,visual_arrow,valid,right,right,1038.70364738,down,0
SPC202,SPC,NS,word_arrow,3,219,mask,visual_word,invalid,right,left,573.509914684,left,1
SPC202,SPC,NS,word_arrow,3,220,mask,visual_arrow,valid,right,right,449.607413233,right,1
SPC202,SPC,NS,word_arrow,3,221,mask,visual_arrow,valid,right,right,553.682761703,right,1
SPC202,SPC,NS,word_arrow,3,222,mask,visual_word,valid,right,right,445.423555182,right,1
SPC202,SPC,NS,word_arrow,3,223,mask,visual_word,valid,left,left,493.521437835,left,1
SPC202,SPC,NS,word_arrow,3,224,mask,visual_word,invalid,left,right,468.270409532,right,1
SPC202,SPC,NS,word_arrow,3,225,mask,visual_word,valid,left,left,507.70897686,left,1
SPC202,SPC,NS,word_arrow,3,226,mask,visual_word,valid,left,left,399.487220537,left,1
SPC202,SPC,NS,word_arrow,3,227,mask,visual_arrow,invalid,left,right,483.201190742,right,1
SPC202,SPC,NS,word_arrow,3,228,mask,visual_word,invalid,left,right,442.620552785,right,1
SPC202,SPC,NS,word_arrow,3,229,mask,visual_arrow,invalid,right,left,817.360562098,left,1
SPC202,SPC,NS,word_arrow,3,230,mask,visual_word,valid,left,left,547.823567991,left,1
SPC202,SPC,NS,word_arrow,3,231,mask,visual_arrow,invalid,left,right,519.591248827,right,1
SPC202,SPC,NS,word_arrow,3,232,mask,visual_arrow,invalid,right,left,421.332842525,left,1
SPC202,SPC,NS,word_arrow,3,233,mask,visual_arrow,valid,left,left,460.74100156,left,1
SPC202,SPC,NS,word_arrow,3,234,mask,visual_arrow,neutral,neutral,right,1066.50961059,down,0
SPC202,SPC,NS,word_arrow,3,235,mask,visual_word,valid,right,right,385.302242212,right,1
SPC202,SPC,NS,word_arrow,3,236,mask,visual_word,valid,left,left,421.020117472,left,1
SPC202,SPC,NS,word_arrow,3,237,mask,visual_arrow,valid,left,left,629.781540571,left,1
SPC202,SPC,NS,word_arrow,3,238,mask,visual_arrow,valid,right,right,1046.54962147,down,0
SPC202,SPC,NS,word_arrow,3,239,mask,visual_word,valid,right,right,480.666421267,right,1
SPC202,SPC,NS,word_arrow,3,240,mask,visual_word,invalid,right,left,376.094617735,left,1
SPC202,SPC,NS,word_arrow,3,241,mask,visual_arrow,valid,right,right,612.487236533,right,1
SPC202,SPC,NS,word_arrow,3,242,mask,visual_arrow,valid,left,left,1189.55972025,down,0
SPC202,SPC,NS,word_arrow,3,243,mask,visual_word,invalid,left,right,639.042299503,right,1
SPC202,SPC,NS,word_arrow,3,244,mask,visual_word,valid,left,left,345.154361974,left,1
SPC202,SPC,NS,word_arrow,3,245,mask,visual_arrow,valid,left,left,814.48970121,right,0
SPC202,SPC,NS,word_arrow,3,246,mask,visual_word,valid,left,left,953.649472649,right,0
SPC202,SPC,NS,word_arrow,3,247,mask,visual_arrow,valid,right,right,701.096618286,right,1
SPC202,SPC,NS,word_arrow,3,248,mask,visual_arrow,neutral,neutral,left,529.855160596,left,1
SPC202,SPC,NS,word_arrow,3,249,mask,visual_word,valid,right,right,1254.91989823,right,1
SPC202,SPC,NS,word_arrow,3,250,mask,visual_arrow,valid,right,right,537.043995952,right,1
SPC202,SPC,NS,word_arrow,3,251,mask,visual_arrow,neutral,neutral,left,381.803690601,left,1
SPC202,SPC,NS,word_arrow,3,252,mask,visual_arrow,valid,left,left,424.919418088,left,1
SPC202,SPC,NS,word_arrow,3,253,mask,visual_arrow,valid,left,left,442.037034081,left,1
SPC202,SPC,NS,word_arrow,3,254,mask,visual_arrow,invalid,right,left,498.418129719,left,1
SPC202,SPC,NS,word_arrow,3,255,mask,visual_arrow,invalid,left,right,497.148664435,right,1
SPC202,SPC,NS,word_arrow,3,256,mask,visual_arrow,valid,right,right,695.888801769,right,1
SPC202,SPC,NS,word_arrow,3,257,mask,visual_word,invalid,right,down,854.675991868,left,0
SPC202,SPC,NS,word_arrow,3,258,mask,visual_arrow,valid,right,right,597.460749326,right,1
SPC202,SPC,NS,word_arrow,3,259,mask,visual_word,invalid,right,left,863.522878208,right,0
SPC202,SPC,NS,word_arrow,3,260,mask,visual_arrow,valid,right,right,436.983499501,right,1
SPC202,SPC,NS,word_arrow,3,261,mask,visual_word,valid,right,right,460.408751183,right,1
SPC202,SPC,NS,word_arrow,3,262,mask,visual_arrow,invalid,right,up,972.839012218,down,0
SPC202,SPC,NS,word_arrow,3,263,mask,visual_word,valid,right,right,485.923851287,right,1
SPC202,SPC,NS,word_arrow,3,264,mask,visual_arrow,invalid,left,right,490.701470815,right,1
SPC202,SPC,NS,word_arrow,3,265,mask,visual_arrow,valid,right,right,531.102859997,right,1
SPC202,SPC,NS,word_arrow,3,266,mask,visual_word,invalid,left,down,662.877902767,down,1
SPC202,SPC,NS,word_arrow,3,267,mask,visual_word,valid,left,left,716.974857147,down,0
SPC202,SPC,NS,word_arrow,3,268,mask,visual_arrow,invalid,right,down,451.397660159,right,0
SPC202,SPC,NS,word_arrow,3,269,mask,visual_arrow,valid,right,right,1213.11588751,right,1
SPC202,SPC,NS,word_arrow,3,270,mask,visual_arrow,invalid,right,down,606.912600226,down,1
SPC202,SPC,NS,word_arrow,3,271,mask,visual_word,valid,right,right,738.398924499,right,1
SPC202,SPC,NS,word_arrow,3,272,mask,visual_word,invalid,left,right,597.1669094,left,0
SPC202,SPC,NS,word_arrow,3,273,mask,visual_word,invalid,left,down,585.191172024,down,1
SPC202,SPC,NS,word_arrow,3,274,mask,visual_word,valid,left,left,476.977417857,left,1
SPC202,SPC,NS,word_arrow,3,275,mask,visual_word,neutral,neutral,right,491.711345472,right,1
SPC202,SPC,NS,word_arrow,3,276,mask,visual_word,valid,left,left,554.149128555,left,1
SPC202,SPC,NS,word_arrow,3,277,mask,visual_word,valid,right,right,422.56997904,right,1
SPC202,SPC,NS,word_arrow,3,278,mask,visual_word,valid,right,right,525.977305835,right,1
SPC202,SPC,NS,word_arrow,3,279,mask,visual_arrow,neutral,neutral,right,492.0896884,right,1
SPC202,SPC,NS,word_arrow,3,280,mask,visual_word,valid,right,right,515.838868159,right,1
SPC202,SPC,NS,word_arrow,3,281,mask,visual_word,valid,right,right,451.300353685,right,1
SPC202,SPC,NS,word_arrow,3,282,mask,visual_word,valid,left,left,433.678280504,left,1
SPC202,SPC,NS,word_arrow,3,283,mask,visual_arrow,valid,right,right,555.760766933,right,1
SPC202,SPC,NS,word_arrow,3,284,mask,visual_arrow,valid,left,left,1144.17329515,down,0
SPC202,SPC,NS,word_arrow,3,285,mask,visual_arrow,valid,left,left,442.983851593,left,1
SPC202,SPC,NS,word_arrow,3,286,mask,visual_word,valid,right,right,1140.72307668,left,0
SPC202,SPC,NS,word_arrow,3,287,mask,visual_word,valid,right,right,865.16748555,right,1
SPC202,SPC,NS,word_arrow,3,288,mask,visual_word,invalid,left,down,791.950450541,right,0
SPC202,SPC,NS,word_arrow,3,289,mask,visual_word,valid,left,left,810.044332058,left,1
SPC202,SPC,NS,word_arrow,3,290,mask,visual_arrow,valid,right,right,613.148856472,right,1
SPC202,SPC,NS,word_arrow,3,291,mask,visual_word,valid,left,left,757.233167416,left,1
SPC202,SPC,NS,word_arrow,3,292,mask,visual_arrow,valid,right,right,434.654225974,left,0
SPC202,SPC,NS,word_arrow,3,293,mask,visual_arrow,valid,left,left,483.743418212,right,0
SPC202,SPC,NS,word_arrow,3,294,mask,visual_arrow,valid,left,left,419.510586886,left,1
SPC202,SPC,NS,word_arrow,3,295,mask,visual_word,valid,right,right,508.601059497,right,1
SPC202,SPC,NS,word_arrow,3,296,mask,visual_arrow,neutral,neutral,left,1203.34234912,up,0
SPC202,SPC,NS,word_arrow,3,297,mask,visual_arrow,valid,left,left,1286.11622361,left,1
SPC202,SPC,NS,word_arrow,3,298,mask,visual_word,valid,right,right,540.922811022,right,1
SPC202,SPC,NS,word_arrow,3,299,mask,visual_word,invalid,right,left,553.678280499,left,1
SPC202,SPC,NS,word_arrow,3,300,mask,visual_arrow,valid,right,right,1959.41200005,right,1
SPC202,SPC,NS,word_arrow,3,301,mask,visual_arrow,valid,right,right,451.562825096,right,1
SPC202,SPC,NS,word_arrow,3,302,mask,visual_word,valid,right,right,482.6720868,right,1
