subj_id,sona_experiment_code,experimenter,cue_contrast,block,trial,mask_type,cue_type,cue_validity,cue_dir,target_loc,rt,response_type,is_correct
SPC204,SPC,NS,word_arrow,0,0,mask,visual_word,invalid,right,up,705.449837202,left,0
SPC204,SPC,NS,word_arrow,0,1,mask,visual_word,valid,left,left,1060.6517655,left,1
SPC204,SPC,NS,word_arrow,0,2,mask,visual_word,invalid,right,up,826.983832289,right,0
SPC204,SPC,NS,word_arrow,0,3,mask,visual_arrow,valid,left,left,988.291140296,left,1
SPC204,SPC,NS,word_arrow,0,4,mask,visual_arrow,valid,left,left,1127.52222217,left,1
SPC204,SPC,NS,word_arrow,0,5,mask,visual_word,valid,left,left,674.819549778,left,1
SPC204,SPC,NS,word_arrow,0,6,mask,visual_word,invalid,left,down,730.754802178,down,1
SPC204,SPC,NS,word_arrow,0,7,mask,visual_arrow,neutral,neutral,right,630.70262759,right,1
SPC204,SPC,NS,word_arrow,0,8,mask,visual_arrow,valid,right,right,614.683447871,right,1
SPC204,SPC,NS,word_arrow,0,9,mask,visual_word,valid,left,left,471.311053028,left,1
SPC204,SPC,NS,word_arrow,0,10,mask,visual_word,valid,left,left,486.265616375,left,1
SPC204,SPC,NS,word_arrow,0,11,mask,visual_word,valid,right,right,452.522462234,right,1
SPC204,SPC,NS,word_arrow,0,12,mask,visual_arrow,valid,right,right,475.503900263,right,1
SPC204,SPC,NS,word_arrow,0,13,mask,visual_word,valid,right,right,580.433912808,right,1
SPC204,SPC,NS,word_arrow,0,14,mask,visual_word,valid,left,left,517.073873372,left,1
SPC204,SPC,NS,word_arrow,1,15,mask,visual_word,invalid,left,right,525.5786411,right,1
SPC204,SPC,NS,word_arrow,1,16,mask,visual_arrow,invalid,left,right,604.498532368,right,1
SPC204,SPC,NS,word_arrow,1,17,mask,visual_word,valid,left,left,535.475796438,left,1
SPC204,SPC,NS,word_arrow,1,18,mask,visual_word,invalid,left,right,509.431425715,right,1
SPC204,SPC,NS,word_arrow,1,19,mask,visual_word,valid,right,right,483.702022641,right,1
SPC204,SPC,NS,word_arrow,1,20,mask,visual_arrow,valid,right,right,536.988537642,right,1
SPC204,SPC,NS,word_arrow,1,21,mask,visual_arrow,valid,right,right,415.593141166,right,1
SPC204,SPC,NS,word_arrow,1,22,mask,visual_arrow,valid,right,right,433.571906411,right,1
SPC204,SPC,NS,word_arrow,1,23,mask,visual_word,invalid,left,right,554.84278826,right,1
SPC204,SPC,NS,word_arrow,1,24,mask,visual_word,valid,left,left,424.457368965,left,1
SPC204,SPC,NS,word_arrow,1,25,mask,visual_arrow,valid,right,right,458.109937783,right,1
SPC204,SPC,NS,word_arrow,1,26,mask,visual_arrow,valid,right,right,408.070406818,right,1
SPC204,SPC,NS,word_arrow,1,27,mask,visual_arrow,invalid,right,left,472.340459586,left,1
SPC204,SPC,NS,word_arrow,1,28,mask,visual_arrow,valid,right,right,416.628949519,right,1
SPC204,SPC,NS,word_arrow,1,29,mask,visual_arrow,invalid,left,right,448.896172689,right,1
SPC204,SPC,NS,word_arrow,1,30,mask,visual_word,invalid,right,down,498.848639487,down,1
SPC204,SPC,NS,word_arrow,1,31,mask,visual_word,valid,left,left,480.481606093,left,1
SPC204,SPC,NS,word_arrow,1,32,mask,visual_word,invalid,right,down,534.788885212,down,1
SPC204,SPC,NS,word_arrow,1,33,mask,visual_arrow,valid,right,right,402.723958367,right,1
SPC204,SPC,NS,word_arrow,1,34,mask,visual_arrow,invalid,right,up,2116.70257,timeout,0
SPC204,SPC,NS,word_arrow,1,35,mask,visual_arrow,valid,left,left,495.256599446,left,1
SPC204,SPC,NS,word_arrow,1,36,mask,visual_arrow,neutral,neutral,left,534.220086876,left,1
SPC204,SPC,NS,word_arrow,1,37,mask,visual_arrow,valid,left,left,457.167275366,left,1
SPC204,SPC,NS,word_arrow,1,38,mask,visual_arrow,valid,left,left,394.800152339,left,1
SPC204,SPC,NS,word_arrow,1,39,mask,visual_arrow,valid,left,left,427.418833424,left,1
SPC204,SPC,NS,word_arrow,1,40,mask,visual_arrow,valid,right,right,451.684789034,right,1
SPC204,SPC,NS,word_arrow,1,41,mask,visual_word,valid,right,right,452.665542078,right,1
SPC204,SPC,NS,word_arrow,1,42,mask,visual_arrow,valid,left,left,284.60435383,left,1
SPC204,SPC,NS,word_arrow,1,43,mask,visual_arrow,neutral,neutral,left,411.235127831,left,1
SPC204,SPC,NS,word_arrow,1,44,mask,visual_arrow,invalid,right,down,507.519213366,down,1
SPC204,SPC,NS,word_arrow,1,45,mask,visual_word,invalid,right,up,743.120164669,right,0
SPC204,SPC,NS,word_arrow,1,46,mask,visual_word,valid,left,left,436.74911093,left,1
SPC204,SPC,NS,word_arrow,1,47,mask,visual_arrow,valid,right,right,444.048103003,right,1
SPC204,SPC,NS,word_arrow,1,48,mask,visual_arrow,valid,left,left,411.639720493,left,1
SPC204,SPC,NS,word_arrow,1,49,mask,visual_arrow,valid,left,left,439.308223373,left,1
SPC204,SPC,NS,word_arrow,1,50,mask,visual_word,valid,right,right,416.907747102,right,1
SPC204,SPC,NS,word_arrow,1,51,mask,visual_arrow,valid,left,left,379.249583057,left,1
SPC204,SPC,NS,word_arrow,1,52,mask,visual_arrow,invalid,left,down,428.335568635,down,1
SPC204,SPC,NS,word_arrow,1,53,mask,visual_arrow,invalid,right,up,902.462125465,up,1
SPC204,SPC,NS,word_arrow,1,54,mask,visual_word,invalid,right,up,971.037056705,down,0
SPC204,SPC,NS,word_arrow,1,55,mask,visual_arrow,invalid,right,left,405.325962754,left,1
SPC204,SPC,NS,word_arrow,1,56,mask,visual_arrow,valid,right,right,416.612304864,right,1
SPC204,SPC,NS,word_arrow,1,57,mask,visual_word,valid,left,left,481.568628747,left,1
SPC204,SPC,NS,word_arrow,1,58,mask,visual_arrow,neutral,neutral,right,431.532618706,right,1
SPC204,SPC,NS,word_arrow,1,59,mask,visual_word,valid,right,right,511.473914317,right,1
SPC204,SPC,NS,word_arrow,1,60,mask,visual_word,valid,left,left,444.778546342,left,1
SPC204,SPC,NS,word_arrow,1,61,mask,visual_word,invalid,left,right,438.413574302,right,1
SPC204,SPC,NS,word_arrow,1,62,mask,visual_word,valid,right,right,392.034902528,right,1
SPC204,SPC,NS,word_arrow,1,63,mask,visual_word,invalid,right,up,842.978685221,left,0
SPC204,SPC,NS,word_arrow,1,64,mask,visual_arrow,invalid,left,right,426.951503265,right,1
SPC204,SPC,NS,word_arrow,1,65,mask,visual_word,valid,left,left,429.534622468,left,1
SPC204,SPC,NS,word_arrow,1,66,mask,visual_arrow,invalid,left,right,357.507530076,right,1
SPC204,SPC,NS,word_arrow,1,67,mask,visual_word,neutral,neutral,left,432.125743828,left,1
SPC204,SPC,NS,word_arrow,1,68,mask,visual_arrow,invalid,left,up,745.081030589,down,0
SPC204,SPC,NS,word_arrow,1,69,mask,visual_arrow,valid,right,right,443.696645147,right,1
SPC204,SPC,NS,word_arrow,1,70,mask,visual_arrow,valid,right,right,394.317137892,right,1
SPC204,SPC,NS,word_arrow,1,71,mask,visual_arrow,valid,left,left,477.278794395,left,1
SPC204,SPC,NS,word_arrow,1,72,mask,visual_word,valid,right,right,388.207276876,right,1
SPC204,SPC,NS,word_arrow,1,73,mask,visual_arrow,valid,left,left,412.847416766,left,1
SPC204,SPC,NS,word_arrow,1,74,mask,visual_word,neutral,neutral,left,397.117597517,left,1
SPC204,SPC,NS,word_arrow,1,75,mask,visual_arrow,valid,right,right,406.749719114,right,1
SPC204,SPC,NS,word_arrow,1,76,mask,visual_word,valid,right,right,392.050586932,right,1
SPC204,SPC,NS,word_arrow,1,77,mask,visual_arrow,valid,right,right,409.66765146,right,1
SPC204,SPC,NS,word_arrow,1,78,mask,visual_arrow,neutral,neutral,right,457.629484066,right,1
SPC204,SPC,NS,word_arrow,1,79,mask,visual_word,valid,right,right,416.569412919,right,1
SPC204,SPC,NS,word_arrow,1,80,mask,visual_arrow,valid,right,right,515.871618642,right,1
SPC204,SPC,NS,word_arrow,1,81,mask,visual_word,valid,right,right,479.486769123,right,1
SPC204,SPC,NS,word_arrow,1,82,mask,visual_word,invalid,right,up,670.759219385,left,0
SPC204,SPC,NS,word_arrow,1,83,mask,visual_word,invalid,left,down,637.384807924,down,1
SPC204,SPC,NS,word_arrow,1,84,mask,visual_arrow,invalid,right,left,605.012275453,left,1
SPC204,SPC,NS,word_arrow,1,85,mask,visual_word,neutral,neutral,right,636.962930497,right,1
SPC204,SPC,NS,word_arrow,1,86,mask,visual_word,valid,right,right,447.570683667,right,1
SPC204,SPC,NS,word_arrow,1,87,mask,visual_word,valid,left,left,393.180501414,left,1
SPC204,SPC,NS,word_arrow,1,88,mask,visual_word,valid,right,right,395.130164223,right,1
SPC204,SPC,NS,word_arrow,1,89,mask,visual_word,valid,left,left,508.778123825,left,1
SPC204,SPC,NS,word_arrow,1,90,mask,visual_arrow,valid,right,right,434.733829927,right,1
SPC204,SPC,NS,word_arrow,1,91,mask,visual_word,valid,left,left,435.995301115,left,1
SPC204,SPC,NS,word_arrow,1,92,mask,visual_word,valid,left,left,452.960664232,left,1
SPC204,SPC,NS,word_arrow,1,93,mask,visual_word,valid,left,left,493.917666667,left,1
SPC204,SPC,NS,word_arrow,1,94,mask,visual_arrow,neutral,neutral,left,444.519914337,left,1
SPC204,SPC,NS,word_arrow,1,95,mask,visual_arrow,valid,right,right,1126.45536521,right,1
SPC204,SPC,NS,word_arrow,1,96,mask,visual_word,valid,right,right,764.778674406,right,1
SPC204,SPC,NS,word_arrow,1,97,mask,visual_word,valid,left,left,425.389788521,left,1
SPC204,SPC,NS,word_arrow,1,98,mask,visual_word,valid,right,right,428.345811495,right,1
SPC204,SPC,NS,word_arrow,1,99,mask,visual_word,invalid,left,up,979.610323498,left,0
SPC204,SPC,NS,word_arrow,1,100,mask,visual_arrow,valid,left,left,615.233360964,left,1
SPC204,SPC,NS,word_arrow,1,101,mask,visual_word,valid,right,right,466.527961369,right,1
SPC204,SPC,NS,word_arrow,1,102,mask,visual_word,valid,right,right,473.158607376,right,1
SPC204,SPC,NS,word_arrow,1,103,mask,visual_word,valid,left,left,374.441844586,left,1
SPC204,SPC,NS,word_arrow,1,104,mask,visual_arrow,valid,right,right,311.392291565,right,1
SPC204,SPC,NS,word_arrow,1,105,mask,visual_arrow,valid,right,right,438.650440308,right,1
SPC204,SPC,NS,word_arrow,2,106,mask,visual_word,valid,left,left,532.83826221,left,1
SPC204,SPC,NS,word_arrow,2,107,mask,visual_word,valid,left,left,465.788555506,left,1
SPC204,SPC,NS,word_arrow,2,108,mask,visual_word,invalid,right,left,491.072394536,left,1
SPC204,SPC,NS,word_arrow,2,109,mask,visual_word,valid,left,left,423.349540506,left,1
SPC204,SPC,NS,word_arrow,2,110,mask,visual_arrow,valid,right,right,422.992961248,right,1
SPC204,SPC,NS,word_arrow,2,111,mask,visual_arrow,valid,left,left,430.292273348,left,1
SPC204,SPC,NS,word_arrow,2,112,mask,visual_word,valid,left,left,382.221930602,left,1
SPC204,SPC,NS,word_arrow,2,113,mask,visual_arrow,invalid,left,up,570.208025922,up,1
SPC204,SPC,NS,word_arrow,2,114,mask,visual_arrow,valid,left,left,414.804441563,left,1
SPC204,SPC,NS,word_arrow,2,115,mask,visual_arrow,valid,left,left,464.108087705,left,1
SPC204,SPC,NS,word_arrow,2,116,mask,visual_arrow,valid,left,left,465.393245453,left,1
SPC204,SPC,NS,word_arrow,2,117,mask,visual_arrow,valid,right,right,472.672712116,right,1
SPC204,SPC,NS,word_arrow,2,118,mask,visual_arrow,invalid,right,down,1319.96747898,up,0
SPC204,SPC,NS,word_arrow,2,119,mask,visual_word,invalid,right,left,390.572735458,left,1
SPC204,SPC,NS,word_arrow,2,120,mask,visual_word,valid,left,left,418.540521699,left,1
SPC204,SPC,NS,word_arrow,2,121,mask,visual_arrow,invalid,left,down,618.141050509,down,1
SPC204,SPC,NS,word_arrow,2,122,mask,visual_arrow,valid,right,right,450.439642416,right,1
SPC204,SPC,NS,word_arrow,2,123,mask,visual_word,neutral,neutral,left,426.398069249,left,1
SPC204,SPC,NS,word_arrow,2,124,mask,visual_arrow,valid,left,left,396.688037959,left,1
SPC204,SPC,NS,word_arrow,2,125,mask,visual_arrow,invalid,left,right,455.634688667,right,1
SPC204,SPC,NS,word_arrow,2,126,mask,visual_word,valid,left,left,389.586220786,left,1
SPC204,SPC,NS,word_arrow,2,127,mask,visual_word,valid,right,right,398.202379525,right,1
SPC204,SPC,NS,word_arrow,2,128,mask,visual_arrow,invalid,left,down,455.518496397,down,1
SPC204,SPC,NS,word_arrow,2,129,mask,visual_arrow,valid,right,right,365.465585608,right,1
SPC204,SPC,NS,word_arrow,2,130,mask,visual_word,valid,left,left,366.770909051,left,1
SPC204,SPC,NS,word_arrow,2,131,mask,visual_word,valid,right,right,546.710284136,right,1
SPC204,SPC,NS,word_arrow,2,132,mask,visual_word,valid,left,left,431.646570447,left,1
SPC204,SPC,NS,word_arrow,2,133,mask,visual_word,neutral,neutral,left,625.283518923,up,0
SPC204,SPC,NS,word_arrow,2,134,mask,visual_arrow,neutral,neutral,right,899.220903055,right,1
SPC204,SPC,NS,word_arrow,2,135,mask,visual_word,invalid,left,up,674.178411253,up,1
SPC204,SPC,NS,word_arrow,2,136,mask,visual_word,valid,right,right,514.456184581,right,1
SPC204,SPC,NS,word_arrow,2,137,mask,visual_word,neutral,neutral,left,384.07972781,left,1
SPC204,SPC,NS,word_arrow,2,138,mask,visual_arrow,valid,left,left,403.687106504,left,1
SPC204,SPC,NS,word_arrow,2,139,mask,visual_word,valid,left,left,389.312224521,left,1
SPC204,SPC,NS,word_arrow,2,140,mask,visual_word,valid,right,right,365.617948002,right,1
SPC204,SPC,NS,word_arrow,2,141,mask,visual_word,valid,right,right,506.894719496,right,1
SPC204,SPC,NS,word_arrow,2,142,mask,visual_word,valid,left,left,521.173254645,left,1
SPC204,SPC,NS,word_arrow,2,143,mask,visual_arrow,valid,right,right,440.123490349,right,1
SPC204,SPC,NS,word_arrow,2,144,mask,visual_arrow,valid,right,right,402.435558033,right,1
SPC204,SPC,NS,word_arrow,2,145,mask,visual_arrow,valid,right,right,579.69930832,right,1
SPC204,SPC,NS,word_arrow,2,146,mask,visual_word,valid,left,left,462.015024968,left,1
SPC204,SPC,NS,word_arrow,2,147,mask,visual_word,valid,right,right,460.285263427,right,1
SPC204,SPC,NS,word_arrow,2,148,mask,visual_word,neutral,neutral,right,581.242137821,right,1
SPC204,SPC,NS,word_arrow,2,149,mask,visual_word,valid,right,right,422.179294692,right,1
SPC204,SPC,NS,word_arrow,2,150,mask,visual_arrow,invalid,left,right,401.47208987,right,1
SPC204,SPC,NS,word_arrow,2,151,mask,visual_arrow,valid,right,right,530.435993394,right,1
SPC204,SPC,NS,word_arrow,2,152,mask,visual_word,valid,right,right,496.056822245,right,1
SPC204,SPC,NS,word_arrow,2,153,mask,visual_arrow,valid,right,right,413.019944739,right,1
SPC204,SPC,NS,word_arrow,2,154,mask,visual_word,valid,right,right,408.305352204,right,1
SPC204,SPC,NS,word_arrow,2,155,mask,visual_word,valid,left,left,505.90276334,left,1
SPC204,SPC,NS,word_arrow,2,156,mask,visual_word,valid,right,right,455.863872543,right,1
SPC204,SPC,NS,word_arrow,2,157,mask,visual_arrow,valid,right,right,449.142001162,right,1
SPC204,SPC,NS,word_arrow,2,158,mask,visual_word,neutral,neutral,right,417.433333409,right,1
SPC204,SPC,NS,word_arrow,2,159,mask,visual_word,valid,right,right,451.074379089,right,1
SPC204,SPC,NS,word_arrow,2,160,mask,visual_word,valid,left,left,372.355503787,left,1
SPC204,SPC,NS,word_arrow,2,161,mask,visual_word,valid,right,right,399.966710713,right,1
SPC204,SPC,NS,word_arrow,2,162,mask,visual_word,valid,right,right,402.933296631,right,1
SPC204,SPC,NS,word_arrow,2,163,mask,visual_arrow,valid,left,left,405.539142084,left,1
SPC204,SPC,NS,word_arrow,2,164,mask,visual_word,invalid,left,right,349.817709241,right,1
SPC204,SPC,NS,word_arrow,2,165,mask,visual_arrow,valid,left,left,386.459270259,left,1
SPC204,SPC,NS,word_arrow,2,166,mask,visual_word,valid,left,left,357.416624785,left,1
SPC204,SPC,NS,word_arrow,2,167,mask,visual_word,invalid,right,left,384.368128085,left,1
SPC204,SPC,NS,word_arrow,2,168,mask,visual_arrow,valid,right,right,380.693505111,right,1
SPC204,SPC,NS,word_arrow,2,169,mask,visual_word,invalid,right,left,375.260632543,left,1
SPC204,SPC,NS,word_arrow,2,170,mask,visual_arrow,invalid,right,left,617.904184503,left,1
SPC204,SPC,NS,word_arrow,2,171,mask,visual_word,invalid,right,left,458.859586506,left,1
SPC204,SPC,NS,word_arrow,2,172,mask,visual_arrow,valid,left,left,505.823701329,left,1
SPC204,SPC,NS,word_arrow,2,173,mask,visual_word,valid,right,right,341.791154642,right,1
SPC204,SPC,NS,word_arrow,2,174,mask,visual_arrow,valid,left,left,338.733663433,left,1
SPC204,SPC,NS,word_arrow,2,175,mask,visual_word,valid,right,right,397.022531077,right,1
SPC204,SPC,NS,word_arrow,2,176,mask,visual_word,valid,left,left,1333.64168589,up,0
SPC204,SPC,NS,word_arrow,2,177,mask,visual_word,valid,left,left,336.534651287,left,1
SPC204,SPC,NS,word_arrow,2,178,mask,visual_word,valid,right,right,380.874675524,right,1
SPC204,SPC,NS,word_arrow,2,179,mask,visual_word,valid,left,left,375.487575773,left,1
SPC204,SPC,NS,word_arrow,2,180,mask,visual_word,valid,right,right,353.093821323,right,1
SPC204,SPC,NS,word_arrow,2,181,mask,visual_arrow,invalid,left,down,2116.74546194,timeout,0
SPC204,SPC,NS,word_arrow,2,182,mask,visual_arrow,neutral,neutral,right,465.159260377,right,1
SPC204,SPC,NS,word_arrow,2,183,mask,visual_arrow,valid,left,left,361.109172809,left,1
SPC204,SPC,NS,word_arrow,2,184,mask,visual_word,valid,left,left,362.734265218,left,1
SPC204,SPC,NS,word_arrow,2,185,mask,visual_word,invalid,right,down,692.043865041,down,1
SPC204,SPC,NS,word_arrow,2,186,mask,visual_arrow,valid,left,left,680.313239223,left,1
SPC204,SPC,NS,word_arrow,2,187,mask,visual_arrow,valid,left,left,561.229846382,left,1
SPC204,SPC,NS,word_arrow,2,188,mask,visual_word,valid,left,left,461.549295287,left,1
SPC204,SPC,NS,word_arrow,2,189,mask,visual_arrow,valid,left,left,413.491436047,left,1
SPC204,SPC,NS,word_arrow,2,190,mask,visual_word,invalid,right,left,436.798404669,left,1
SPC204,SPC,NS,word_arrow,2,191,mask,visual_word,valid,right,right,438.422216743,right,1
SPC204,SPC,NS,word_arrow,2,192,mask,visual_word,valid,right,right,487.033510115,right,1
SPC204,SPC,NS,word_arrow,2,193,mask,visual_arrow,valid,left,left,365.310982568,left,1
SPC204,SPC,NS,word_arrow,2,194,mask,visual_word,valid,right,right,424.253792269,right,1
SPC204,SPC,NS,word_arrow,2,195,mask,visual_arrow,valid,left,left,419.219110627,left,1
SPC204,SPC,NS,word_arrow,2,196,mask,visual_word,valid,left,left,419.51839393,left,1
SPC204,SPC,NS,word_arrow,2,197,mask,visual_arrow,valid,right,right,363.476551836,right,1
SPC204,SPC,NS,word_arrow,2,198,mask,visual_arrow,invalid,right,left,406.759321806,left,1
SPC204,SPC,NS,word_arrow,2,199,mask,visual_word,invalid,right,left,478.386302711,left,1
SPC204,SPC,NS,word_arrow,2,200,mask,visual_arrow,valid,left,left,476.99039412,left,1
SPC204,SPC,NS,word_arrow,2,201,mask,visual_arrow,invalid,right,up,1051.61180877,right,0
SPC204,SPC,NS,word_arrow,2,202,mask,visual_word,invalid,left,up,971.902257588,right,0
SPC204,SPC,NS,word_arrow,2,203,mask,visual_arrow,valid,right,right,1416.48522951,right,1
SPC204,SPC,NS,word_arrow,2,204,mask,visual_arrow,valid,right,right,387.107770832,right,1
SPC204,SPC,NS,word_arrow,2,205,mask,visual_arrow,valid,left,left,365.065154154,left,1
SPC204,SPC,NS,word_arrow,2,206,mask,visual_word,invalid,left,up,694.993166137,right,0
SPC204,SPC,NS,word_arrow,2,207,mask,visual_word,valid,left,left,470.27556476,left,1
SPC204,SPC,NS,word_arrow,2,208,mask,visual_word,invalid,left,up,534.919801692,left,0
SPC204,SPC,NS,word_arrow,2,209,mask,visual_word,invalid,right,up,620.882613759,up,1
SPC204,SPC,NS,word_arrow,3,210,mask,visual_word,invalid,left,down,525.694833428,down,1
SPC204,SPC,NS,word_arrow,3,211,mask,visual_arrow,invalid,right,up,2116.72369589,timeout,0
SPC204,SPC,NS,word_arrow,3,212,mask,visual_arrow,neutral,neutral,right,453.216735565,right,1
SPC204,SPC,NS,word_arrow,3,213,mask,visual_arrow,invalid,right,left,437.130657199,left,1
SPC204,SPC,NS,word_arrow,3,214,mask,visual_arrow,valid,left,left,415.781673626,left,1
SPC204,SPC,NS,word_arrow,3,215,mask,visual_arrow,invalid,left,up,495.053022809,up,1
SPC204,SPC,NS,word_arrow,3,216,mask,visual_word,invalid,left,right,1086.67116921,right,1
SPC204,SPC,NS,word_arrow,3,217,mask,visual_arrow,valid,left,left,446.620979288,left,1
SPC204,SPC,NS,word_arrow,3,218,mask,visual_word,valid,left,left,389.621750743,left,1
SPC204,SPC,NS,word_arrow,3,219,mask,visual_word,valid,right,right,382.878433331,right,1
SPC204,SPC,NS,word_arrow,3,220,mask,visual_arrow,invalid,left,right,482.828179374,right,1
SPC204,SPC,NS,word_arrow,3,221,mask,visual_arrow,invalid,right,down,1313.76895326,right,0
SPC204,SPC,NS,word_arrow,3,222,mask,visual_word,neutral,neutral,right,472.711122769,right,1
SPC204,SPC,NS,word_arrow,3,223,mask,visual_arrow,valid,right,right,385.024630814,right,1
SPC204,SPC,NS,word_arrow,3,224,mask,visual_word,valid,left,left,385.967613372,left,1
SPC204,SPC,NS,word_arrow,3,225,mask,visual_arrow,invalid,left,right,371.921462938,right,1
SPC204,SPC,NS,word_arrow,3,226,mask,visual_arrow,valid,right,right,366.19826965,right,1
SPC204,SPC,NS,word_arrow,3,227,mask,visual_arrow,valid,right,right,463.827369502,right,1
SPC204,SPC,NS,word_arrow,3,228,mask,visual_arrow,valid,left,left,409.120299097,left,1
SPC204,SPC,NS,word_arrow,3,229,mask,visual_arrow,valid,left,left,456.714669359,left,1
SPC204,SPC,NS,word_arrow,3,230,mask,visual_word,valid,left,left,456.038000935,left,1
SPC204,SPC,NS,word_arrow,3,231,mask,visual_arrow,valid,left,left,559.630041011,left,1
SPC204,SPC,NS,word_arrow,3,232,mask,visual_word,invalid,right,left,426.615409728,left,1
SPC204,SPC,NS,word_arrow,3,233,mask,visual_arrow,valid,right,right,418.205388414,right,1
SPC204,SPC,NS,word_arrow,3,234,mask,visual_arrow,neutral,neutral,right,452.175485669,right,1
SPC204,SPC,NS,word_arrow,3,235,mask,visual_word,valid,right,right,514.126812865,right,1
SPC204,SPC,NS,word_arrow,3,236,mask,visual_word,invalid,right,up,599.080704036,up,1
SPC204,SPC,NS,word_arrow,3,237,mask,visual_arrow,valid,right,right,351.667504234,right,1
SPC204,SPC,NS,word_arrow,3,238,mask,visual_word,valid,left,left,379.322883498,left,1
SPC204,SPC,NS,word_arrow,3,239,mask,visual_arrow,invalid,left,up,525.24734888,up,1
SPC204,SPC,NS,word_arrow,3,240,mask,visual_word,valid,left,left,458.566384856,left,1
SPC204,SPC,NS,word_arrow,3,241,mask,visual_arrow,invalid,right,left,403.840109066,left,1
SPC204,SPC,NS,word_arrow,3,242,mask,visual_arrow,valid,left,left,429.784932116,left,1
SPC204,SPC,NS,word_arrow,3,243,mask,visual_arrow,valid,left,left,502.101705119,left,1
SPC204,SPC,NS,word_arrow,3,244,mask,visual_word,valid,left,left,490.39572617,left,1
SPC204,SPC,NS,word_arrow,3,245,mask,visual_arrow,invalid,right,up,1073.3340162,up,1
SPC204,SPC,NS,word_arrow,3,246,mask,visual_arrow,valid,right,right,400.293841783,right,1
SPC204,SPC,NS,word_arrow,3,247,mask,visual_word,valid,left,left,442.263286095,left,1
SPC204,SPC,NS,word_arrow,3,248,mask,visual_word,invalid,left,up,673.508144624,up,1
SPC204,SPC,NS,word_arrow,3,249,mask,visual_arrow,valid,right,right,393.79795338,right,1
SPC204,SPC,NS,word_arrow,3,250,mask,visual_arrow,valid,left,left,500.099547731,left,1
SPC204,SPC,NS,word_arrow,3,251,mask,visual_word,neutral,neutral,right,699.37294547,right,1
SPC204,SPC,NS,word_arrow,3,252,mask,visual_word,valid,right,right,474.3294933,right,1
SPC204,SPC,NS,word_arrow,3,253,mask,visual_word,valid,right,right,458.939288685,right,1
SPC204,SPC,NS,word_arrow,3,254,mask,visual_arrow,valid,right,right,387.561017007,right,1
SPC204,SPC,NS,word_arrow,3,255,mask,visual_arrow,valid,left,left,365.201512119,left,1
SPC204,SPC,NS,word_arrow,3,256,mask,visual_arrow,valid,right,right,433.496365382,right,1
SPC204,SPC,NS,word_arrow,3,257,mask,visual_word,invalid,left,up,425.142999797,up,1
SPC204,SPC,NS,word_arrow,3,258,mask,visual_arrow,valid,right,right,408.730110445,right,1
SPC204,SPC,NS,word_arrow,3,259,mask,visual_arrow,valid,right,right,387.336954649,right,1
SPC204,SPC,NS,word_arrow,3,260,mask,visual_arrow,valid,left,left,428.292036522,left,1
SPC204,SPC,NS,word_arrow,3,261,mask,visual_word,valid,right,right,380.577632808,right,1
SPC204,SPC,NS,word_arrow,3,262,mask,visual_word,neutral,neutral,left,413.526005636,left,1
SPC204,SPC,NS,word_arrow,3,263,mask,visual_word,invalid,right,left,446.474378463,left,1
SPC204,SPC,NS,word_arrow,3,264,mask,visual_word,valid,right,right,397.444728587,right,1
SPC204,SPC,NS,word_arrow,3,265,mask,visual_arrow,neutral,neutral,left,479.108743893,left,1
SPC204,SPC,NS,word_arrow,3,266,mask,visual_arrow,valid,left,left,408.025274228,left,1
SPC204,SPC,NS,word_arrow,3,267,mask,visual_arrow,valid,left,left,440.304980904,left,1
SPC204,SPC,NS,word_arrow,3,268,mask,visual_word,invalid,left,right,440.261768876,right,1
SPC204,SPC,NS,word_arrow,3,269,mask,visual_word,valid,left,left,414.891505847,left,1
SPC204,SPC,NS,word_arrow,3,270,mask,visual_word,valid,right,right,360.86366442,right,1
SPC204,SPC,NS,word_arrow,3,271,mask,visual_word,valid,right,right,548.464052379,right,1
SPC204,SPC,NS,word_arrow,3,272,mask,visual_arrow,valid,right,right,394.117082236,right,1
SPC204,SPC,NS,word_arrow,3,273,mask,visual_word,valid,right,right,389.701132837,right,1
SPC204,SPC,NS,word_arrow,3,274,mask,visual_arrow,valid,left,left,431.343766104,left,1
SPC204,SPC,NS,word_arrow,3,275,mask,visual_word,valid,right,right,343.291092257,right,1
SPC204,SPC,NS,word_arrow,3,276,mask,visual_arrow,neutral,neutral,left,378.912209184,left,1
SPC204,SPC,NS,word_arrow,3,277,mask,visual_word,valid,left,left,429.551907291,left,1
SPC204,SPC,NS,word_arrow,3,278,mask,visual_arrow,valid,left,left,412.49339818,left,1
SPC204,SPC,NS,word_arrow,3,279,mask,visual_arrow,invalid,right,down,652.106026362,right,0
SPC204,SPC,NS,word_arrow,3,280,mask,visual_word,neutral,neutral,right,475.06953933,right,1
SPC204,SPC,NS,word_arrow,3,281,mask,visual_arrow,invalid,left,right,483.67897619,right,1
SPC204,SPC,NS,word_arrow,3,282,mask,visual_word,valid,right,right,409.627640329,right,1
SPC204,SPC,NS,word_arrow,3,283,mask,visual_arrow,invalid,right,left,394.575769897,left,1
SPC204,SPC,NS,word_arrow,3,284,mask,visual_arrow,invalid,right,left,468.538761197,left,1
SPC204,SPC,NS,word_arrow,3,285,mask,visual_word,invalid,left,up,524.502501532,up,1
SPC204,SPC,NS,word_arrow,3,286,mask,visual_arrow,valid,right,right,455.446156207,right,1
SPC204,SPC,NS,word_arrow,3,287,mask,visual_arrow,valid,left,left,384.413260676,left,1
SPC204,SPC,NS,word_arrow,3,288,mask,visual_word,valid,left,left,569.701965025,left,1
SPC204,SPC,NS,word_arrow,3,289,mask,visual_arrow,invalid,left,right,444.967719028,right,1
SPC204,SPC,NS,word_arrow,3,290,mask,visual_arrow,valid,left,left,358.943449857,left,1
SPC204,SPC,NS,word_arrow,3,291,mask,visual_word,valid,left,left,449.572841055,left,1
SPC204,SPC,NS,word_arrow,3,292,mask,visual_arrow,valid,right,right,409.846261202,right,1
SPC204,SPC,NS,word_arrow,3,293,mask,visual_word,valid,left,left,338.822968304,left,1
SPC204,SPC,NS,word_arrow,3,294,mask,visual_arrow,valid,left,left,429.764446395,left,1
SPC204,SPC,NS,word_arrow,3,295,mask,visual_word,invalid,left,right,368.376796134,right,1
SPC204,SPC,NS,word_arrow,3,296,mask,visual_word,valid,right,right,387.324791227,right,1
SPC204,SPC,NS,word_arrow,3,297,mask,visual_word,valid,right,right,692.960920336,right,1
SPC204,SPC,NS,word_arrow,3,298,mask,visual_arrow,valid,left,left,409.931084781,left,1
SPC204,SPC,NS,word_arrow,3,299,mask,visual_arrow,neutral,neutral,left,371.202542796,left,1
SPC204,SPC,NS,word_arrow,3,300,mask,visual_arrow,valid,left,left,358.497565729,left,1
SPC204,SPC,NS,word_arrow,3,301,mask,visual_arrow,valid,right,right,441.118967545,right,1
SPC204,SPC,NS,word_arrow,3,302,mask,visual_word,valid,left,left,440.409650095,left,1
