subj_id,sona_experiment_code,experimenter,cue_contrast,block,trial,mask_type,cue_type,cue_validity,cue_dir,target_loc,rt,response_type,is_correct
SPC218a,SPC,NS,visual_auditory,0,0,mask,auditory_word,neutral,neutral,right,789.190659765,right,1
SPC218a,SPC,NS,visual_auditory,0,1,mask,auditory_word,valid,left,left,1342.28574159,right,0
SPC218a,SPC,NS,visual_auditory,0,2,mask,auditory_word,invalid,right,down,1025.40050889,down,1
SPC218a,SPC,NS,visual_auditory,0,3,mask,visual_word,valid,left,left,699.174495414,left,1
SPC218a,SPC,NS,visual_auditory,0,4,mask,visual_word,valid,left,left,737.611190416,left,1
SPC218a,SPC,NS,visual_auditory,0,5,mask,auditory_word,valid,left,left,620.706111891,left,1
SPC218a,SPC,NS,visual_auditory,0,6,mask,visual_word,valid,left,left,550.132355886,left,1
SPC218a,SPC,NS,visual_auditory,0,7,mask,visual_word,valid,left,left,504.206584301,left,1
SPC218a,SPC,NS,visual_auditory,0,8,mask,auditory_word,valid,left,left,477.277339436,left,1
SPC218a,SPC,NS,visual_auditory,0,9,mask,visual_word,invalid,right,up,637.335915584,up,1
SPC218a,SPC,NS,visual_auditory,0,10,mask,auditory_word,valid,right,right,485.769249266,right,1
SPC218a,SPC,NS,visual_auditory,0,11,mask,visual_word,invalid,left,up,646.53105638,up,1
SPC218a,SPC,NS,visual_auditory,0,12,mask,auditory_word,valid,left,left,584.941183915,left,1
SPC218a,SPC,NS,visual_auditory,0,13,mask,visual_word,neutral,neutral,right,683.671718696,right,1
SPC218a,SPC,NS,visual_auditory,0,14,mask,visual_word,valid,right,right,465.434438083,right,1
SPC218a,SPC,NS,visual_auditory,1,15,mask,visual_word,valid,left,left,508.397483965,left,1
SPC218a,SPC,NS,visual_auditory,1,16,mask,visual_word,valid,right,right,587.07392402,right,1
SPC218a,SPC,NS,visual_auditory,1,17,mask,visual_word,valid,left,left,515.233583516,left,1
SPC218a,SPC,NS,visual_auditory,1,18,mask,auditory_word,neutral,neutral,left,537.324392237,left,1
SPC218a,SPC,NS,visual_auditory,1,19,mask,auditory_word,invalid,left,right,445.068578701,right,1
SPC218a,SPC,NS,visual_auditory,1,20,mask,auditory_word,neutral,neutral,left,453.800553689,left,1
SPC218a,SPC,NS,visual_auditory,1,21,mask,auditory_word,valid,right,right,493.931149133,right,1
SPC218a,SPC,NS,visual_auditory,1,22,mask,visual_word,invalid,left,right,412.338396069,right,1
SPC218a,SPC,NS,visual_auditory,1,23,mask,auditory_word,invalid,right,down,647.393691121,down,1
SPC218a,SPC,NS,visual_auditory,1,24,mask,visual_word,invalid,left,right,413.816238055,right,1
SPC218a,SPC,NS,visual_auditory,1,25,mask,auditory_word,valid,right,right,409.242513822,right,1
SPC218a,SPC,NS,visual_auditory,1,26,mask,visual_word,valid,right,right,404.975113226,right,1
SPC218a,SPC,NS,visual_auditory,1,27,mask,visual_word,valid,left,left,494.706080062,left,1
SPC218a,SPC,NS,visual_auditory,1,28,mask,auditory_word,valid,right,right,467.126418371,right,1
SPC218a,SPC,NS,visual_auditory,1,29,mask,auditory_word,valid,left,left,425.556071335,left,1
SPC218a,SPC,NS,visual_auditory,1,30,mask,visual_word,valid,right,right,388.270409545,right,1
SPC218a,SPC,NS,visual_auditory,1,31,mask,visual_word,invalid,right,down,502.039274666,down,1
SPC218a,SPC,NS,visual_auditory,1,32,mask,visual_word,valid,left,left,518.109245691,left,1
SPC218a,SPC,NS,visual_auditory,1,33,mask,visual_word,valid,left,left,572.170990519,left,1
SPC218a,SPC,NS,visual_auditory,1,34,mask,auditory_word,valid,right,right,465.589360334,right,1
SPC218a,SPC,NS,visual_auditory,1,35,mask,visual_word,valid,right,right,472.681849496,right,1
SPC218a,SPC,NS,visual_auditory,1,36,mask,visual_word,valid,right,right,416.78600572,right,1
SPC218a,SPC,NS,visual_auditory,1,37,mask,visual_word,invalid,left,up,648.861610331,up,1
SPC218a,SPC,NS,visual_auditory,1,38,mask,auditory_word,invalid,right,left,578.571131453,left,1
SPC218a,SPC,NS,visual_auditory,1,39,mask,auditory_word,invalid,right,up,628.661235794,up,1
SPC218a,SPC,NS,visual_auditory,1,40,mask,visual_word,valid,left,left,573.754141107,left,1
SPC218a,SPC,NS,visual_auditory,1,41,mask,visual_word,valid,right,right,626.181841362,right,1
SPC218a,SPC,NS,visual_auditory,1,42,mask,visual_word,valid,left,left,499.955828069,left,1
SPC218a,SPC,NS,visual_auditory,1,43,mask,auditory_word,neutral,neutral,left,555.984187871,left,1
SPC218a,SPC,NS,visual_auditory,1,44,mask,auditory_word,valid,left,left,481.064289575,left,1
SPC218a,SPC,NS,visual_auditory,1,45,mask,auditory_word,valid,right,right,352.145063458,right,1
SPC218a,SPC,NS,visual_auditory,1,46,mask,auditory_word,invalid,left,down,605.610165978,down,1
SPC218a,SPC,NS,visual_auditory,1,47,mask,visual_word,valid,left,left,389.678152511,left,1
SPC218a,SPC,NS,visual_auditory,1,48,mask,auditory_word,invalid,right,down,574.387593428,down,1
SPC218a,SPC,NS,visual_auditory,1,49,mask,auditory_word,valid,left,left,575.495094527,left,1
SPC218a,SPC,NS,visual_auditory,1,50,mask,auditory_word,valid,right,right,555.234863888,right,1
SPC218a,SPC,NS,visual_auditory,1,51,mask,visual_word,invalid,right,left,551.666853484,left,1
SPC218a,SPC,NS,visual_auditory,1,52,mask,auditory_word,valid,left,left,484.04526012,left,1
SPC218a,SPC,NS,visual_auditory,1,53,mask,visual_word,invalid,left,right,540.508298436,right,1
SPC218a,SPC,NS,visual_auditory,1,54,mask,auditory_word,valid,left,left,430.896403734,left,1
SPC218a,SPC,NS,visual_auditory,1,55,mask,auditory_word,invalid,right,left,431.674215477,left,1
SPC218a,SPC,NS,visual_auditory,1,56,mask,auditory_word,invalid,right,up,617.396411719,up,1
SPC218a,SPC,NS,visual_auditory,1,57,mask,visual_word,valid,right,right,516.124065733,right,1
SPC218a,SPC,NS,visual_auditory,1,58,mask,visual_word,valid,right,right,535.534145078,right,1
SPC218a,SPC,NS,visual_auditory,1,59,mask,visual_word,invalid,right,left,476.30459466,left,1
SPC218a,SPC,NS,visual_auditory,1,60,mask,visual_word,valid,right,right,546.721828403,right,1
SPC218a,SPC,NS,visual_auditory,1,61,mask,auditory_word,valid,left,left,521.160955774,left,1
SPC218a,SPC,NS,visual_auditory,1,62,mask,visual_word,valid,right,right,462.228766177,right,1
SPC218a,SPC,NS,visual_auditory,1,63,mask,auditory_word,invalid,left,up,583.619544515,up,1
SPC218a,SPC,NS,visual_auditory,1,64,mask,visual_word,valid,left,left,418.403725838,left,1
SPC218a,SPC,NS,visual_auditory,1,65,mask,visual_word,valid,left,left,467.835411197,left,1
SPC218a,SPC,NS,visual_auditory,1,66,mask,auditory_word,valid,left,left,505.865915678,left,1
SPC218a,SPC,NS,visual_auditory,1,67,mask,auditory_word,invalid,left,right,496.277707396,right,1
SPC218a,SPC,NS,visual_auditory,1,68,mask,auditory_word,neutral,neutral,right,486.710945377,right,1
SPC218a,SPC,NS,visual_auditory,1,69,mask,auditory_word,valid,right,right,517.438023118,right,1
SPC218a,SPC,NS,visual_auditory,1,70,mask,visual_word,invalid,right,down,627.205159748,down,1
SPC218a,SPC,NS,visual_auditory,1,71,mask,auditory_word,invalid,left,up,716.990861576,up,1
SPC218a,SPC,NS,visual_auditory,1,72,mask,visual_word,invalid,left,right,547.364563216,right,1
SPC218a,SPC,NS,visual_auditory,1,73,mask,auditory_word,valid,left,left,560.104668373,left,1
SPC218a,SPC,NS,visual_auditory,1,74,mask,auditory_word,valid,left,left,436.48032262,left,1
SPC218a,SPC,NS,visual_auditory,1,75,mask,visual_word,valid,left,left,402.645519702,left,1
SPC218a,SPC,NS,visual_auditory,1,76,mask,visual_word,invalid,left,right,476.392618846,right,1
SPC218a,SPC,NS,visual_auditory,1,77,mask,visual_word,valid,right,right,586.762479274,right,1
SPC218a,SPC,NS,visual_auditory,1,78,mask,auditory_word,valid,right,right,452.18411414,right,1
SPC218a,SPC,NS,visual_auditory,1,79,mask,auditory_word,invalid,right,left,459.281724645,left,1
SPC218a,SPC,NS,visual_auditory,1,80,mask,visual_word,valid,right,right,450.685146265,right,1
SPC218a,SPC,NS,visual_auditory,1,81,mask,auditory_word,valid,left,left,564.767696662,left,1
SPC218a,SPC,NS,visual_auditory,1,82,mask,auditory_word,valid,left,left,446.175759891,left,1
SPC218a,SPC,NS,visual_auditory,1,83,mask,auditory_word,invalid,right,up,574.588288087,up,1
SPC218a,SPC,NS,visual_auditory,1,84,mask,visual_word,invalid,left,down,583.676199894,down,1
SPC218a,SPC,NS,visual_auditory,1,85,mask,auditory_word,valid,left,left,444.437687052,left,1
SPC218a,SPC,NS,visual_auditory,1,86,mask,auditory_word,valid,left,left,454.174095299,left,1
SPC218a,SPC,NS,visual_auditory,1,87,mask,visual_word,valid,right,right,420.600803336,right,1
SPC218a,SPC,NS,visual_auditory,1,88,mask,auditory_word,valid,right,right,431.637725327,right,1
SPC218a,SPC,NS,visual_auditory,1,89,mask,auditory_word,valid,left,left,401.736152358,left,1
SPC218a,SPC,NS,visual_auditory,1,90,mask,visual_word,valid,right,right,373.491989914,right,1
SPC218a,SPC,NS,visual_auditory,1,91,mask,visual_word,valid,right,right,545.902725542,right,1
SPC218a,SPC,NS,visual_auditory,1,92,mask,visual_word,valid,left,left,524.303570623,left,1
SPC218a,SPC,NS,visual_auditory,1,93,mask,auditory_word,valid,left,left,530.378182884,left,1
SPC218a,SPC,NS,visual_auditory,1,94,mask,visual_word,valid,right,right,432.480194606,right,1
SPC218a,SPC,NS,visual_auditory,1,95,mask,auditory_word,valid,right,right,512.563097058,right,1
SPC218a,SPC,NS,visual_auditory,1,96,mask,auditory_word,invalid,left,up,639.280124102,up,1
SPC218a,SPC,NS,visual_auditory,1,97,mask,visual_word,valid,right,right,449.03285685,right,1
SPC218a,SPC,NS,visual_auditory,1,98,mask,visual_word,valid,right,right,384.133604122,right,1
SPC218a,SPC,NS,visual_auditory,1,99,mask,auditory_word,valid,left,left,476.214330411,left,1
SPC218a,SPC,NS,visual_auditory,1,100,mask,auditory_word,valid,left,left,652.272138046,left,1
SPC218a,SPC,NS,visual_auditory,1,101,mask,auditory_word,valid,right,right,339.054462966,right,1
SPC218a,SPC,NS,visual_auditory,1,102,mask,visual_word,valid,right,right,423.127890565,right,1
SPC218a,SPC,NS,visual_auditory,1,103,mask,visual_word,valid,left,left,584.863402881,left,1
SPC218a,SPC,NS,visual_auditory,1,104,mask,auditory_word,invalid,right,down,714.612614829,right,0
SPC218a,SPC,NS,visual_auditory,1,105,mask,visual_word,valid,right,right,634.06846649,right,1
SPC218a,SPC,NS,visual_auditory,2,106,mask,visual_word,valid,right,right,586.975977523,right,1
SPC218a,SPC,NS,visual_auditory,2,107,mask,auditory_word,valid,right,right,581.383416429,right,1
SPC218a,SPC,NS,visual_auditory,2,108,mask,auditory_word,valid,left,left,398.145735729,left,1
SPC218a,SPC,NS,visual_auditory,2,109,mask,visual_word,valid,right,right,358.930589166,right,1
SPC218a,SPC,NS,visual_auditory,2,110,mask,visual_word,valid,right,right,442.976489663,right,1
SPC218a,SPC,NS,visual_auditory,2,111,mask,visual_word,invalid,right,down,714.371909155,down,1
SPC218a,SPC,NS,visual_auditory,2,112,mask,visual_word,valid,right,right,424.160811817,right,1
SPC218a,SPC,NS,visual_auditory,2,113,mask,visual_word,invalid,right,down,656.593953725,down,1
SPC218a,SPC,NS,visual_auditory,2,114,mask,visual_word,neutral,neutral,left,585.669702152,left,1
SPC218a,SPC,NS,visual_auditory,2,115,mask,visual_word,valid,left,left,508.716931101,left,1
SPC218a,SPC,NS,visual_auditory,2,116,mask,visual_word,neutral,neutral,right,492.138021393,right,1
SPC218a,SPC,NS,visual_auditory,2,117,mask,visual_word,valid,right,right,625.560232438,right,1
SPC218a,SPC,NS,visual_auditory,2,118,mask,auditory_word,valid,left,left,500.008962583,left,1
SPC218a,SPC,NS,visual_auditory,2,119,mask,visual_word,neutral,neutral,left,476.067090174,left,1
SPC218a,SPC,NS,visual_auditory,2,120,mask,visual_word,invalid,right,up,701.112302486,up,1
SPC218a,SPC,NS,visual_auditory,2,121,mask,visual_word,valid,left,left,572.549973615,left,1
SPC218a,SPC,NS,visual_auditory,2,122,mask,auditory_word,valid,right,right,433.631227585,right,1
SPC218a,SPC,NS,visual_auditory,2,123,mask,auditory_word,valid,right,right,460.055055097,right,1
SPC218a,SPC,NS,visual_auditory,2,124,mask,visual_word,valid,right,right,484.10351621,right,1
SPC218a,SPC,NS,visual_auditory,2,125,mask,auditory_word,neutral,neutral,right,465.869436506,right,1
SPC218a,SPC,NS,visual_auditory,2,126,mask,visual_word,invalid,right,left,575.965622673,left,1
SPC218a,SPC,NS,visual_auditory,2,127,mask,auditory_word,invalid,left,down,577.72290078,down,1
SPC218a,SPC,NS,visual_auditory,2,128,mask,auditory_word,invalid,right,left,475.168285659,left,1
SPC218a,SPC,NS,visual_auditory,2,129,mask,visual_word,neutral,neutral,left,504.552918486,left,1
SPC218a,SPC,NS,visual_auditory,2,130,mask,visual_word,valid,left,left,485.622649547,left,1
SPC218a,SPC,NS,visual_auditory,2,131,mask,visual_word,valid,right,right,411.361170234,right,1
SPC218a,SPC,NS,visual_auditory,2,132,mask,auditory_word,valid,left,left,451.135828858,left,1
SPC218a,SPC,NS,visual_auditory,2,133,mask,auditory_word,valid,left,left,418.874573894,left,1
SPC218a,SPC,NS,visual_auditory,2,134,mask,visual_word,valid,right,right,404.267400736,right,1
SPC218a,SPC,NS,visual_auditory,2,135,mask,auditory_word,valid,left,left,430.344573688,left,1
SPC218a,SPC,NS,visual_auditory,2,136,mask,auditory_word,neutral,neutral,left,470.088504022,left,1
SPC218a,SPC,NS,visual_auditory,2,137,mask,auditory_word,valid,right,right,478.187346831,right,1
SPC218a,SPC,NS,visual_auditory,2,138,mask,visual_word,valid,left,left,501.953171333,left,1
SPC218a,SPC,NS,visual_auditory,2,139,mask,auditory_word,valid,right,right,418.335547205,right,1
SPC218a,SPC,NS,visual_auditory,2,140,mask,auditory_word,valid,right,right,450.398988556,right,1
SPC218a,SPC,NS,visual_auditory,2,141,mask,auditory_word,valid,left,left,392.844773829,left,1
SPC218a,SPC,NS,visual_auditory,2,142,mask,visual_word,valid,left,left,451.908839168,left,1
SPC218a,SPC,NS,visual_auditory,2,143,mask,auditory_word,valid,right,right,442.672406789,right,1
SPC218a,SPC,NS,visual_auditory,2,144,mask,visual_word,invalid,left,right,467.380247544,right,1
SPC218a,SPC,NS,visual_auditory,2,145,mask,auditory_word,invalid,right,left,508.138213539,left,1
SPC218a,SPC,NS,visual_auditory,2,146,mask,auditory_word,valid,right,right,408.230718691,right,1
SPC218a,SPC,NS,visual_auditory,2,147,mask,visual_word,valid,left,left,410.32760893,left,1
SPC218a,SPC,NS,visual_auditory,2,148,mask,auditory_word,valid,left,left,484.063505195,left,1
SPC218a,SPC,NS,visual_auditory,2,149,mask,visual_word,valid,left,left,452.458428685,left,1
SPC218a,SPC,NS,visual_auditory,2,150,mask,visual_word,valid,right,right,427.193636773,right,1
SPC218a,SPC,NS,visual_auditory,2,151,mask,auditory_word,invalid,left,up,587.261815323,up,1
SPC218a,SPC,NS,visual_auditory,2,152,mask,visual_word,invalid,right,down,581.365171121,down,1
SPC218a,SPC,NS,visual_auditory,2,153,mask,auditory_word,valid,right,right,1489.10487653,up,0
SPC218a,SPC,NS,visual_auditory,2,154,mask,visual_word,valid,right,right,446.226013592,right,1
SPC218a,SPC,NS,visual_auditory,2,155,mask,auditory_word,valid,left,left,424.317334313,left,1
SPC218a,SPC,NS,visual_auditory,2,156,mask,visual_word,invalid,right,left,459.062145092,left,1
SPC218a,SPC,NS,visual_auditory,2,157,mask,visual_word,valid,left,left,385.170366382,left,1
SPC218a,SPC,NS,visual_auditory,2,158,mask,visual_word,valid,right,right,426.246819086,right,1
SPC218a,SPC,NS,visual_auditory,2,159,mask,visual_word,neutral,neutral,right,433.289054548,right,1
SPC218a,SPC,NS,visual_auditory,2,160,mask,auditory_word,valid,right,right,417.728021974,right,1
SPC218a,SPC,NS,visual_auditory,2,161,mask,visual_word,valid,left,left,418.765104143,left,1
SPC218a,SPC,NS,visual_auditory,2,162,mask,visual_word,valid,right,right,514.529071981,right,1
SPC218a,SPC,NS,visual_auditory,2,163,mask,auditory_word,valid,right,right,417.927116156,right,1
SPC218a,SPC,NS,visual_auditory,2,164,mask,visual_word,neutral,neutral,right,530.018084915,right,1
SPC218a,SPC,NS,visual_auditory,2,165,mask,auditory_word,valid,right,right,480.766608613,right,1
SPC218a,SPC,NS,visual_auditory,2,166,mask,auditory_word,neutral,neutral,right,360.526223201,right,1
SPC218a,SPC,NS,visual_auditory,2,167,mask,visual_word,neutral,neutral,right,378.987884847,right,1
SPC218a,SPC,NS,visual_auditory,2,168,mask,visual_word,valid,left,left,380.682745716,left,1
SPC218a,SPC,NS,visual_auditory,2,169,mask,visual_word,invalid,left,right,496.402221266,right,1
SPC218a,SPC,NS,visual_auditory,2,170,mask,visual_word,valid,right,right,447.502520634,right,1
SPC218a,SPC,NS,visual_auditory,2,171,mask,visual_word,valid,left,left,505.236624274,left,1
SPC218a,SPC,NS,visual_auditory,2,172,mask,visual_word,valid,right,right,357.043355936,right,1
SPC218a,SPC,NS,visual_auditory,2,173,mask,auditory_word,invalid,right,left,480.057615554,left,1
SPC218a,SPC,NS,visual_auditory,2,174,mask,auditory_word,valid,left,left,432.12521798,left,1
SPC218a,SPC,NS,visual_auditory,2,175,mask,visual_word,valid,left,left,416.216570884,left,1
SPC218a,SPC,NS,visual_auditory,2,176,mask,auditory_word,invalid,right,left,449.63590079,left,1
SPC218a,SPC,NS,visual_auditory,2,177,mask,auditory_word,valid,right,right,376.080213813,right,1
SPC218a,SPC,NS,visual_auditory,2,178,mask,auditory_word,valid,right,right,417.472912697,right,1
SPC218a,SPC,NS,visual_auditory,2,179,mask,visual_word,valid,right,right,364.558039932,right,1
SPC218a,SPC,NS,visual_auditory,2,180,mask,visual_word,valid,left,left,471.60347621,left,1
SPC218a,SPC,NS,visual_auditory,2,181,mask,auditory_word,valid,left,left,479.682793841,left,1
SPC218a,SPC,NS,visual_auditory,2,182,mask,visual_word,valid,left,left,373.469583923,left,1
SPC218a,SPC,NS,visual_auditory,2,183,mask,auditory_word,valid,right,right,502.550773788,right,1
SPC218a,SPC,NS,visual_auditory,2,184,mask,visual_word,valid,right,right,420.92505144,right,1
SPC218a,SPC,NS,visual_auditory,2,185,mask,auditory_word,valid,right,right,390.99691133,right,1
SPC218a,SPC,NS,visual_auditory,2,186,mask,auditory_word,invalid,right,down,624.739849241,down,1
SPC218a,SPC,NS,visual_auditory,2,187,mask,auditory_word,valid,right,right,465.871677035,right,1
SPC218a,SPC,NS,visual_auditory,2,188,mask,visual_word,neutral,neutral,right,479.955507908,right,1
SPC218a,SPC,NS,visual_auditory,2,189,mask,visual_word,valid,left,left,477.018068777,left,1
SPC218a,SPC,NS,visual_auditory,2,190,mask,auditory_word,valid,left,left,437.417537672,left,1
SPC218a,SPC,NS,visual_auditory,2,191,mask,visual_word,invalid,left,right,422.173391096,right,1
SPC218a,SPC,NS,visual_auditory,2,192,mask,auditory_word,valid,right,right,440.904566087,right,1
SPC218a,SPC,NS,visual_auditory,2,193,mask,visual_word,valid,right,right,368.025222793,right,1
SPC218a,SPC,NS,visual_auditory,2,194,mask,visual_word,valid,left,left,396.404782077,left,1
SPC218a,SPC,NS,visual_auditory,3,195,mask,auditory_word,neutral,neutral,left,530.312564922,left,1
SPC218a,SPC,NS,visual_auditory,3,196,mask,visual_word,valid,left,left,453.684362117,left,1
SPC218a,SPC,NS,visual_auditory,3,197,mask,auditory_word,valid,right,right,388.747979421,right,1
SPC218a,SPC,NS,visual_auditory,3,198,mask,visual_word,invalid,left,right,415.509498445,right,1
SPC218a,SPC,NS,visual_auditory,3,199,mask,auditory_word,valid,left,left,456.300113583,left,1
SPC218a,SPC,NS,visual_auditory,3,200,mask,auditory_word,valid,left,left,423.704367597,left,1
SPC218a,SPC,NS,visual_auditory,3,201,mask,visual_word,valid,left,left,583.740537288,left,1
SPC218a,SPC,NS,visual_auditory,3,202,mask,visual_word,invalid,left,right,425.197573844,right,1
SPC218a,SPC,NS,visual_auditory,3,203,mask,visual_word,valid,left,left,403.248883784,left,1
SPC218a,SPC,NS,visual_auditory,3,204,mask,auditory_word,invalid,left,right,371.683818055,right,1
SPC218a,SPC,NS,visual_auditory,3,205,mask,auditory_word,valid,right,right,413.105644751,right,1
SPC218a,SPC,NS,visual_auditory,3,206,mask,auditory_word,valid,left,left,480.461885454,left,1
SPC218a,SPC,NS,visual_auditory,3,207,mask,visual_word,valid,left,left,391.534977593,left,1
SPC218a,SPC,NS,visual_auditory,3,208,mask,visual_word,valid,left,left,392.290703021,left,1
SPC218a,SPC,NS,visual_auditory,3,209,mask,auditory_word,valid,right,right,427.074244246,right,1
SPC218a,SPC,NS,visual_auditory,3,210,mask,visual_word,invalid,left,right,428.491909988,right,1
SPC218a,SPC,NS,visual_auditory,3,211,mask,auditory_word,valid,right,right,405.863674823,right,1
SPC218a,SPC,NS,visual_auditory,3,212,mask,visual_word,invalid,left,up,592.59926714,up,1
SPC218a,SPC,NS,visual_auditory,3,213,mask,auditory_word,invalid,right,up,524.717763066,up,1
SPC218a,SPC,NS,visual_auditory,3,214,mask,auditory_word,valid,left,left,433.811756782,left,1
SPC218a,SPC,NS,visual_auditory,3,215,mask,auditory_word,invalid,right,left,418.548085028,left,1
SPC218a,SPC,NS,visual_auditory,3,216,mask,auditory_word,valid,left,left,460.593441501,left,1
SPC218a,SPC,NS,visual_auditory,3,217,mask,visual_word,valid,right,right,450.693788705,right,1
SPC218a,SPC,NS,visual_auditory,3,218,mask,auditory_word,invalid,left,down,611.755517544,down,1
SPC218a,SPC,NS,visual_auditory,3,219,mask,auditory_word,invalid,left,right,476.194164716,right,1
SPC218a,SPC,NS,visual_auditory,3,220,mask,auditory_word,invalid,left,down,593.963158084,down,1
SPC218a,SPC,NS,visual_auditory,3,221,mask,visual_word,valid,left,left,445.987548446,left,1
SPC218a,SPC,NS,visual_auditory,3,222,mask,visual_word,invalid,right,left,460.769809317,left,1
SPC218a,SPC,NS,visual_auditory,3,223,mask,visual_word,valid,left,left,476.868908387,left,1
SPC218a,SPC,NS,visual_auditory,3,224,mask,visual_word,invalid,right,left,500.623209635,left,1
SPC218a,SPC,NS,visual_auditory,3,225,mask,auditory_word,valid,left,left,426.671254449,left,1
SPC218a,SPC,NS,visual_auditory,3,226,mask,visual_word,invalid,right,down,482.062960975,down,1
SPC218a,SPC,NS,visual_auditory,3,227,mask,auditory_word,valid,left,left,406.820095144,left,1
SPC218a,SPC,NS,visual_auditory,3,228,mask,auditory_word,valid,right,right,438.565369695,right,1
SPC218a,SPC,NS,visual_auditory,3,229,mask,visual_word,valid,left,left,472.715778742,left,1
SPC218a,SPC,NS,visual_auditory,3,230,mask,visual_word,valid,right,right,439.729206264,right,1
SPC218a,SPC,NS,visual_auditory,3,231,mask,auditory_word,invalid,right,left,342.469151597,left,1
SPC218a,SPC,NS,visual_auditory,3,232,mask,auditory_word,neutral,neutral,right,457.221004181,right,1
SPC218a,SPC,NS,visual_auditory,3,233,mask,visual_word,invalid,right,up,607.967607211,up,1
SPC218a,SPC,NS,visual_auditory,3,234,mask,visual_word,invalid,left,right,505.058976123,right,1
SPC218a,SPC,NS,visual_auditory,3,235,mask,auditory_word,valid,left,left,389.143286971,left,1
SPC218a,SPC,NS,visual_auditory,3,236,mask,auditory_word,invalid,left,up,447.212201776,up,1
SPC218a,SPC,NS,visual_auditory,3,237,mask,visual_word,invalid,left,down,448.941312032,down,1
SPC218a,SPC,NS,visual_auditory,3,238,mask,visual_word,valid,left,left,434.39655588,left,1
SPC218a,SPC,NS,visual_auditory,3,239,mask,visual_word,valid,right,right,397.124978015,right,1
SPC218a,SPC,NS,visual_auditory,3,240,mask,auditory_word,valid,left,left,448.176303878,left,1
SPC218a,SPC,NS,visual_auditory,3,241,mask,visual_word,invalid,right,up,449.2511563,up,1
SPC218a,SPC,NS,visual_auditory,3,242,mask,auditory_word,valid,right,right,352.002624655,right,1
SPC218a,SPC,NS,visual_auditory,3,243,mask,visual_word,valid,right,right,410.738600884,right,1
SPC218a,SPC,NS,visual_auditory,3,244,mask,visual_word,invalid,right,left,365.829105489,left,1
SPC218a,SPC,NS,visual_auditory,3,245,mask,visual_word,invalid,right,down,488.600739278,down,1
SPC218a,SPC,NS,visual_auditory,3,246,mask,auditory_word,valid,left,left,397.33303478,left,1
SPC218a,SPC,NS,visual_auditory,3,247,mask,visual_word,valid,left,left,471.063809469,left,1
SPC218a,SPC,NS,visual_auditory,3,248,mask,auditory_word,valid,right,right,396.844581701,right,1
SPC218a,SPC,NS,visual_auditory,3,249,mask,visual_word,valid,right,right,413.582254201,right,1
SPC218a,SPC,NS,visual_auditory,3,250,mask,auditory_word,invalid,left,right,407.29766502,right,1
SPC218a,SPC,NS,visual_auditory,3,251,mask,auditory_word,valid,left,left,385.056095198,left,1
SPC218a,SPC,NS,visual_auditory,3,252,mask,auditory_word,invalid,left,up,492.444664938,up,1
SPC218a,SPC,NS,visual_auditory,3,253,mask,auditory_word,valid,left,left,352.886064909,left,1
SPC218a,SPC,NS,visual_auditory,3,254,mask,auditory_word,valid,left,left,412.985932082,left,1
SPC218a,SPC,NS,visual_auditory,3,255,mask,auditory_word,invalid,left,right,439.684073906,right,1
SPC218a,SPC,NS,visual_auditory,3,256,mask,visual_word,valid,left,left,367.79476027,left,1
SPC218a,SPC,NS,visual_auditory,3,257,mask,visual_word,valid,left,left,378.157899017,left,1
SPC218a,SPC,NS,visual_auditory,3,258,mask,auditory_word,valid,right,right,382.583742961,right,1
SPC218a,SPC,NS,visual_auditory,3,259,mask,visual_word,invalid,left,down,666.024358477,down,1
SPC218a,SPC,NS,visual_auditory,3,260,mask,visual_word,invalid,left,up,456.771281781,up,1
SPC218a,SPC,NS,visual_auditory,3,261,mask,auditory_word,neutral,neutral,left,400.490053231,left,1
SPC218a,SPC,NS,visual_auditory,3,262,mask,auditory_word,valid,left,left,346.255141543,left,1
SPC218a,SPC,NS,visual_auditory,3,263,mask,visual_word,valid,right,right,374.331898289,right,1
SPC218a,SPC,NS,visual_auditory,3,264,mask,auditory_word,valid,right,right,464.732807362,right,1
SPC218a,SPC,NS,visual_auditory,3,265,mask,auditory_word,invalid,right,down,526.150473161,down,1
SPC218a,SPC,NS,visual_auditory,3,266,mask,auditory_word,invalid,left,right,442.880463554,right,1
SPC218a,SPC,NS,visual_auditory,3,267,mask,auditory_word,valid,left,left,1154.29508826,right,0
SPC218a,SPC,NS,visual_auditory,3,268,mask,visual_word,valid,right,right,500.412272057,right,1
SPC218a,SPC,NS,visual_auditory,3,269,mask,visual_word,valid,left,left,428.163820645,left,1
SPC218a,SPC,NS,visual_auditory,3,270,mask,visual_word,neutral,neutral,left,388.562649023,left,1
SPC218a,SPC,NS,visual_auditory,3,271,mask,auditory_word,valid,right,right,360.018244945,right,1
SPC218a,SPC,NS,visual_auditory,3,272,mask,auditory_word,valid,left,left,370.722916676,left,1
SPC218a,SPC,NS,visual_auditory,3,273,mask,auditory_word,valid,right,right,400.174447568,right,1
SPC218a,SPC,NS,visual_auditory,3,274,mask,auditory_word,valid,right,right,321.914440719,right,1
SPC218a,SPC,NS,visual_auditory,3,275,mask,auditory_word,valid,right,right,416.635564994,right,1
SPC218a,SPC,NS,visual_auditory,3,276,mask,auditory_word,valid,right,right,347.007666249,right,1
SPC218a,SPC,NS,visual_auditory,3,277,mask,auditory_word,valid,left,left,413.449418265,left,1
SPC218a,SPC,NS,visual_auditory,3,278,mask,auditory_word,neutral,neutral,right,397.855096497,right,1
SPC218a,SPC,NS,visual_auditory,3,279,mask,visual_word,valid,left,left,406.267304672,left,1
SPC218a,SPC,NS,visual_auditory,3,280,mask,visual_word,neutral,neutral,right,414.348222781,right,1
SPC218a,SPC,NS,visual_auditory,3,281,mask,auditory_word,valid,left,left,390.759726521,left,1
SPC218a,SPC,NS,visual_auditory,3,282,mask,auditory_word,valid,right,right,311.158875236,right,1
SPC218a,SPC,NS,visual_auditory,3,283,mask,visual_word,neutral,neutral,left,635.263991775,down,0
SPC218a,SPC,NS,visual_auditory,3,284,mask,visual_word,valid,right,right,434.011811391,right,1
SPC218a,SPC,NS,visual_auditory,3,285,mask,visual_word,valid,right,right,403.090440668,right,1
SPC218a,SPC,NS,visual_auditory,3,286,mask,auditory_word,valid,left,left,382.473953068,left,1
SPC218a,SPC,NS,visual_auditory,3,287,mask,auditory_word,valid,right,right,305.237264605,right,1
SPC218a,SPC,NS,visual_auditory,3,288,mask,visual_word,valid,left,left,421.97557725,left,1
SPC218a,SPC,NS,visual_auditory,3,289,mask,visual_word,invalid,right,down,686.382215936,down,1
SPC218a,SPC,NS,visual_auditory,3,290,mask,auditory_word,valid,right,right,324.465854792,right,1
SPC218a,SPC,NS,visual_auditory,3,291,mask,auditory_word,valid,right,right,370.528623927,right,1
SPC218a,SPC,NS,visual_auditory,3,292,mask,auditory_word,valid,right,right,367.932717782,right,1
SPC218a,SPC,NS,visual_auditory,3,293,mask,auditory_word,neutral,neutral,right,356.026759371,right,1
SPC218a,SPC,NS,visual_auditory,3,294,mask,auditory_word,invalid,left,right,431.105420692,right,1
SPC218a,SPC,NS,visual_auditory,3,295,mask,visual_word,valid,right,right,357.849975117,right,1
SPC218a,SPC,NS,visual_auditory,3,296,mask,visual_word,valid,left,left,511.61755994,left,1
SPC218a,SPC,NS,visual_auditory,3,297,mask,auditory_word,valid,left,left,406.012195395,left,1
SPC218a,SPC,NS,visual_auditory,3,298,mask,visual_word,neutral,neutral,left,360.10658904,left,1
SPC218a,SPC,NS,visual_auditory,3,299,mask,visual_word,valid,right,right,403.865051456,right,1
SPC218a,SPC,NS,visual_auditory,3,300,mask,visual_word,valid,left,left,412.911031861,left,1
SPC218a,SPC,NS,visual_auditory,3,301,mask,visual_word,valid,left,left,476.99246183,left,1
SPC218a,SPC,NS,visual_auditory,3,302,mask,visual_word,valid,left,left,418.046828825,left,1
