subj_id	date	computer	experimenter	part	trial_ix	cue_present	cue_type	cue_loc	cue_pos_x	cue_pos_y	mask_flicker	target_present	target_loc	target_pos_x	target_pos_y	target_opacity	target_duration	rt	key	response	is_correct
SPC614	2015_May_07_1403	LL-Elaine	PME	practice	0	0					False	1	left	-211.254103974	-14.44603758	0.6	0.083	1078.19076488		nogo	0	0.1
SPC614	2015_May_07_1403	LL-Elaine	PME	practice	1	0					False	1	left	-191.657142034	-1.10568880672	0.6	0.083	1083.21698848		nogo	0	0.1
SPC614	2015_May_07_1403	LL-Elaine	PME	practice	2	0					False	1	left	-186.331792644	-0.3299077706	0.6	0.083	662.882024655	 	go	1	0.1
SPC614	2015_May_07_1403	LL-Elaine	PME	practice	3	0					False	0					0.083	1086.41100209		nogo	1	0.1
SPC614	2015_May_07_1403	LL-Elaine	PME	practice	4	0					False	1	right	184.069885734	-5.92319629978	0.6	0.083	1088.16748508		nogo	0	0.1
SPC614	2015_May_07_1403	LL-Elaine	PME	practice	5	0					False	1	left	-203.976291813	12.338165415	0.6	0.083	737.112841336	 	go	1	0.1
SPC614	2015_May_07_1403	LL-Elaine	PME	practice	6	0					False	1	left	-221.65345113	15.6191223435	0.6	0.083	645.202962914	 	go	1	0.1
SPC614	2015_May_07_1403	LL-Elaine	PME	practice	7	0					False	1	right	222.027467491	8.95690768725	0.6	0.083	398.660336854	 	go	1	0.1
SPC614	2015_May_07_1403	LL-Elaine	PME	practice	8	0					False	1	left	-209.146118918	0.756373391331	0.6	0.083	382.098249393	 	go	1	0.1
SPC614	2015_May_07_1403	LL-Elaine	PME	practice	9	0					False	1	left	-197.3198777	-10.4123257077	0.6	0.083	336.939246627	 	go	1	0.1
SPC614	2015_May_07_1403	LL-Elaine	PME	cueing_effect	0	0					False	0					0.083	1086.5656652		nogo	1	0.1
SPC614	2015_May_07_1403	LL-Elaine	PME	cueing_effect	1	1	frame	right	200	0	False	1	right	216.844611939	22.8189485976	0.6	0.083	578.778130934	 	go	1	0.1
SPC614	2015_May_07_1403	LL-Elaine	PME	cueing_effect	2	1	frame	left	-200	0	False	1	left	-185.160783417	1.668680825	0.6	0.083	472.324484028	 	go	1	0.1
SPC614	2015_May_07_1403	LL-Elaine	PME	cueing_effect	3	1	frame	right	200	0	False	1	right	201.189759788	18.8938986202	0.6	0.083	407.321139006	 	go	1	0.1
SPC614	2015_May_07_1403	LL-Elaine	PME	cueing_effect	4	1	frame	right	200	0	False	1	right	190.037317478	14.6054801565	0.6	0.083	467.242106795	 	go	1	0.1
SPC614	2015_May_07_1403	LL-Elaine	PME	cueing_effect	5	0					False	1	right	186.749006725	-18.21504794	0.6	0.083	503.637947608	 	go	1	0.1
SPC614	2015_May_07_1403	LL-Elaine	PME	cueing_effect	6	1	frame	left	-200	0	False	1	left	-210.216515926	-4.35517725747	0.6	0.083	412.848894019	 	go	1	0.1
SPC614	2015_May_07_1403	LL-Elaine	PME	cueing_effect	7	0					False	0					0.083	1086.61379688		nogo	1	0.1
SPC614	2015_May_07_1403	LL-Elaine	PME	cueing_effect	8	0					False	1	right	205.809427214	-20.9817399408	0.6	0.083	387.997259852	 	go	1	0.1
SPC614	2015_May_07_1403	LL-Elaine	PME	cueing_effect	9	1	sound	right			False	1	right	184.388385176	-9.51405789821	0.6	0.083	754.405245651	 	go	1	0.1
SPC614	2015_May_07_1403	LL-Elaine	PME	cueing_effect	10	1	sound	left			False	1	left	-180.485816727	22.7705410188	0.6	0.083	419.398643542	 	go	1	0.1
SPC614	2015_May_07_1403	LL-Elaine	PME	cueing_effect	11	1	sound	right			False	1	right	216.349923378	21.8725348672	0.6	0.083	303.741911892	 	go	1	0.1
SPC614	2015_May_07_1403	LL-Elaine	PME	cueing_effect	12	1	sound	right			False	1	right	202.644401063	-17.9118837222	0.6	0.083	370.139148319	 	go	1	0.1
SPC614	2015_May_07_1403	LL-Elaine	PME	cueing_effect	13	1	sound	right			False	1	right	202.67927071	4.55959417469	0.6	0.083	291.16448015	 	go	1	0.1
SPC614	2015_May_07_1403	LL-Elaine	PME	cueing_effect	14	1	sound	right			False	1	right	182.722646958	-21.1584472033	0.6	0.083	370.255947812	 	go	1	0.1
SPC614	2015_May_07_1403	LL-Elaine	PME	cueing_effect	15	1	frame	left	-200	0	False	1	left	-213.478459816	-13.1982817872	0.6	0.083	341.151404427	 	go	1	0.1
SPC614	2015_May_07_1403	LL-Elaine	PME	cueing_effect	16	1	sound	left			False	1	left	-212.389712215	-23.7391241525	0.6	0.083	336.681903107	 	go	1	0.1
SPC614	2015_May_07_1403	LL-Elaine	PME	cueing_effect	17	1	frame	right	200	0	False	1	right	209.834216326	-14.2903221129	0.6	0.083	331.511926139	 	go	1	0.1
SPC614	2015_May_07_1403	LL-Elaine	PME	cueing_effect	18	1	sound	left			False	1	left	-206.763674181	-2.99788432952	0.6	0.083	336.590773892	 	go	1	0.1
SPC614	2015_May_07_1403	LL-Elaine	PME	cueing_effect	19	1	sound	right			False	1	right	217.470040855	12.0864270608	0.6	0.083	356.077979552	 	go	1	0.1
SPC614	2015_May_07_1403	LL-Elaine	PME	cueing_effect	20	1	sound	right			False	1	right	215.032061443	-1.53732654923	0.6	0.083	518.673941959	 	go	1	0.1
SPC614	2015_May_07_1403	LL-Elaine	PME	cueing_effect	21	1	sound	right			False	1	right	188.051475033	-21.5299789901	0.6	0.083	387.678307714	 	go	1	0.1
SPC614	2015_May_07_1403	LL-Elaine	PME	cueing_effect	22	1	frame	left	-200	0	False	0					0.083	1088.07186363		nogo	1	0.1
SPC614	2015_May_07_1403	LL-Elaine	PME	cueing_effect	23	1	sound	right			False	1	right	187.397852289	13.9803400139	0.6	0.083	523.354580859	 	go	1	0.1
SPC614	2015_May_07_1403	LL-Elaine	PME	cueing_effect	24	0					False	1	right	184.526072873	-21.6831616783	0.6	0.083	453.971259063	 	go	1	0.1
SPC614	2015_May_07_1403	LL-Elaine	PME	cueing_effect	25	0					False	1	right	198.196361631	16.3229952666	0.6	0.083	376.060299342	 	go	1	0.1
SPC614	2015_May_07_1403	LL-Elaine	PME	cueing_effect	26	1	frame	right	200	0	False	1	right	222.830022493	-2.54901534626	0.6	0.083	533.05791365	 	go	1	0.1
SPC614	2015_May_07_1403	LL-Elaine	PME	cueing_effect	27	0					False	1	left	-190.01386095	0.171100925145	0.6	0.083	362.494565081	 	go	1	0.1
SPC614	2015_May_07_1403	LL-Elaine	PME	cueing_effect	28	0					False	1	right	219.434874874	1.94415385081	0.6	0.083	396.038768347	 	go	1	0.1
SPC614	2015_May_07_1403	LL-Elaine	PME	cueing_effect	29	1	sound	left			False	1	left	-187.020182612	-10.3943857267	0.6	0.083	375.70123747	 	go	1	0.1
SPC614	2015_May_07_1403	LL-Elaine	PME	cueing_effect	30	0					False	1	left	-211.71905666	5.34786687368	0.6	0.083	327.200617408	 	go	1	0.1
SPC614	2015_May_07_1403	LL-Elaine	PME	cueing_effect	31	1	sound	right			False	1	right	216.959753932	22.8447444777	0.6	0.083	361.459735548	 	go	1	0.1
SPC614	2015_May_07_1403	LL-Elaine	PME	cueing_effect	32	1	frame	left	-200	0	False	0					0.083	1082.62176113		nogo	1	0.1
SPC614	2015_May_07_1403	LL-Elaine	PME	cueing_effect	33	1	sound	right			False	0					0.083	1087.47374825		nogo	1	0.1
SPC614	2015_May_07_1403	LL-Elaine	PME	cueing_effect	34	1	sound	left			False	1	left	-207.073669467	16.7788285661	0.6	0.083	562.579597579	 	go	1	0.1
SPC614	2015_May_07_1403	LL-Elaine	PME	cueing_effect	35	1	frame	left	-200	0	False	1	left	-221.301961911	-7.87283957311	0.6	0.083	480.968921445	 	go	1	0.1
SPC614	2015_May_07_1403	LL-Elaine	PME	cueing_effect	36	1	sound	left			False	1	left	-202.516589536	17.5080587848	0.6	0.083	445.668556029	 	go	1	0.1
SPC614	2015_May_07_1403	LL-Elaine	PME	cueing_effect	37	1	frame	right	200	0	False	0					0.083	1087.07810636		nogo	1	0.1
SPC614	2015_May_07_1403	LL-Elaine	PME	cueing_effect	38	1	sound	left			False	1	left	-178.109957643	18.7577225721	0.6	0.083	380.312566645	 	go	1	0.1
SPC614	2015_May_07_1403	LL-Elaine	PME	cueing_effect	39	0					False	1	left	-222.979542425	-13.3866670075	0.6	0.083	336.522747763	 	go	1	0.1
SPC614	2015_May_07_1403	LL-Elaine	PME	cueing_effect	40	0					False	1	right	211.11511722	-9.74416891222	0.6	0.083	525.815710425	 	go	1	0.1
SPC614	2015_May_07_1403	LL-Elaine	PME	cueing_effect	41	1	frame	left	-200	0	False	1	left	-209.97798733	-11.3812459566	0.6	0.083	429.173852783	 	go	1	0.1
SPC614	2015_May_07_1403	LL-Elaine	PME	cueing_effect	42	1	sound	left			False	1	left	-184.324951052	14.1276259386	0.6	0.083	326.509768376	 	go	1	0.1
SPC614	2015_May_07_1403	LL-Elaine	PME	cueing_effect	43	1	frame	left	-200	0	False	1	left	-185.491334814	18.6530514626	0.6	0.083	329.869675683	 	go	1	0.1
SPC614	2015_May_07_1403	LL-Elaine	PME	cueing_effect	44	1	sound	left			False	1	left	-215.991250322	7.22163368063	0.6	0.083	369.871857576	 	go	1	0.1
SPC614	2015_May_07_1403	LL-Elaine	PME	cueing_effect	45	0					False	0					0.083	1088.13475561		nogo	1	0.1
SPC614	2015_May_07_1403	LL-Elaine	PME	cueing_effect	46	1	sound	right			False	1	right	177.783719217	-12.887785913	0.6	0.083	397.695458494	 	go	1	0.1
SPC614	2015_May_07_1403	LL-Elaine	PME	cueing_effect	47	1	sound	left			False	1	left	-195.739330485	-6.60627204138	0.6	0.083	327.408225043	 	go	1	0.1
SPC614	2015_May_07_1403	LL-Elaine	PME	cueing_effect	48	1	sound	left			False	1	left	-185.64306895	14.6449433092	0.6	0.083	321.392094484	 	go	1	0.1
SPC614	2015_May_07_1403	LL-Elaine	PME	cueing_effect	49	0					False	0					0.083	1080.166728		nogo	1	0.1
SPC614	2015_May_07_1403	LL-Elaine	PME	cueing_effect	50	1	frame	right	200	0	False	1	right	181.142243521	-12.7993455872	0.6	0.083	374.819466379	 	go	1	0.1
SPC614	2015_May_07_1403	LL-Elaine	PME	cueing_effect	51	1	frame	left	-200	0	False	1	left	-195.134120441	-2.97482610356	0.6	0.083	318.511578022	 	go	1	0.1
SPC614	2015_May_07_1403	LL-Elaine	PME	cueing_effect	52	0					False	0					0.083	1087.6967581		nogo	1	0.1
SPC614	2015_May_07_1403	LL-Elaine	PME	cueing_effect	53	1	frame	right	200	0	False	1	right	203.70888026	9.93650839492	0.6	0.083	401.537002763	 	go	1	0.1
SPC614	2015_May_07_1403	LL-Elaine	PME	cueing_effect	54	1	sound	left			False	1	left	-223.739953101	-2.17801883027	0.6	0.083	340.069405967	 	go	1	0.1
SPC614	2015_May_07_1403	LL-Elaine	PME	cueing_effect	55	1	sound	right			False	1	right	198.962225984	-18.1460784776	0.6	0.083	319.970286917	 	go	1	0.1
SPC614	2015_May_07_1403	LL-Elaine	PME	cueing_effect	56	0					False	0					0.083	1079.39533866		nogo	1	0.1
SPC614	2015_May_07_1403	LL-Elaine	PME	cueing_effect	57	0					False	1	right	221.440409866	9.60724926979	0.6	0.083	340.017102659	 	go	1	0.1
SPC614	2015_May_07_1403	LL-Elaine	PME	cueing_effect	58	0					False	0					0.083	1086.35805757		nogo	1	0.1
SPC614	2015_May_07_1403	LL-Elaine	PME	cueing_effect	59	0					False	0					0.083	1081.32958761		nogo	1	0.1
SPC614	2015_May_07_1403	LL-Elaine	PME	cueing_effect	60	1	sound	right			False	1	right	211.0357402	8.60626046986	0.6	0.083	337.293816032	 	go	1	0.1
SPC614	2015_May_07_1403	LL-Elaine	PME	cueing_effect	61	0					False	1	right	176.454479075	2.7933073421	0.6	0.083	427.159384592	 	go	1	0.1
SPC614	2015_May_07_1403	LL-Elaine	PME	cueing_effect	62	0					False	1	right	181.768085807	-1.93201572288	0.6	0.083	526.050592773	 	go	1	0.1
SPC614	2015_May_07_1403	LL-Elaine	PME	cueing_effect	63	1	sound	left			False	0					0.083	1086.81177814		nogo	1	0.1
SPC614	2015_May_07_1403	LL-Elaine	PME	cueing_effect	64	1	frame	right	200	0	False	1	right	209.637705188	-16.7935781602	0.6	0.083	370.45842153	 	go	1	0.1
SPC614	2015_May_07_1403	LL-Elaine	PME	cueing_effect	65	1	sound	right			False	0					0.083	1080.24566388		nogo	1	0.1
SPC614	2015_May_07_1403	LL-Elaine	PME	cueing_effect	66	1	frame	left	-200	0	False	1	left	-190.635376932	18.2847788685	0.6	0.083	386.779850814	 	go	1	0.1
SPC614	2015_May_07_1403	LL-Elaine	PME	cueing_effect	67	1	frame	right	200	0	False	1	right	183.9154013	-13.9482987708	0.6	0.083	317.730883136	 	go	1	0.1
SPC614	2015_May_07_1403	LL-Elaine	PME	cueing_effect	68	1	frame	left	-200	0	False	1	left	-208.907664197	16.6726611995	0.6	0.083	352.062519873	 	go	1	0.1
SPC614	2015_May_07_1403	LL-Elaine	PME	cueing_effect	69	1	sound	right			False	1	right	201.707689076	18.0740171641	0.6	0.083	411.934393458	 	go	1	0.1
SPC614	2015_May_07_1403	LL-Elaine	PME	cueing_effect	70	0					False	1	right	211.296471479	15.2931211125	0.6	0.083	415.604268201	 	go	1	0.1
SPC614	2015_May_07_1403	LL-Elaine	PME	cueing_effect	71	1	frame	right	200	0	False	1	right	192.823557072	-6.87050164971	0.6	0.083	319.944295567	 	go	1	0.1
SPC614	2015_May_07_1403	LL-Elaine	PME	cueing_effect	72	1	frame	left	-200	0	False	0					0.083	1086.78546618		nogo	1	0.1
SPC614	2015_May_07_1403	LL-Elaine	PME	cueing_effect	73	0					False	1	right	222.853021851	-2.99576330415	0.6	0.083	343.15335867	 	go	1	0.1
SPC614	2015_May_07_1403	LL-Elaine	PME	cueing_effect	74	1	frame	left	-200	0	False	1	left	-213.096621245	-14.4863533428	0.6	0.083	310.252835276	 	go	1	0.1
SPC614	2015_May_07_1403	LL-Elaine	PME	cueing_effect	75	1	frame	right	200	0	False	1	right	214.793026651	-12.2946108859	0.6	0.083	370.054116007	 	go	1	0.1
SPC614	2015_May_07_1403	LL-Elaine	PME	cueing_effect	76	1	frame	right	200	0	False	1	right	206.641976143	-1.33318214715	0.6	0.083	473.238022067	 	go	1	0.1
SPC614	2015_May_07_1403	LL-Elaine	PME	cueing_effect	77	1	sound	right			False	1	right	181.023354314	1.82806083068	0.6	0.083	347.997003002	 	go	1	0.1
SPC614	2015_May_07_1403	LL-Elaine	PME	cueing_effect	78	0					False	1	right	185.139925121	16.5021249828	0.6	0.083	320.271590725	 	go	1	0.1
SPC614	2015_May_07_1403	LL-Elaine	PME	cueing_effect	79	1	sound	left			False	1	left	-199.459256145	-21.1864227648	0.6	0.083	379.04959335	 	go	1	0.1
SPC614	2015_May_07_1403	LL-Elaine	PME	cueing_effect	80	1	frame	left	-200	0	False	1	left	-191.777612713	2.0439589069	0.6	0.083	352.197609143	 	go	1	0.1
SPC614	2015_May_07_1403	LL-Elaine	PME	cueing_effect	81	0					False	0					0.083	1079.45213397		nogo	1	0.1
SPC614	2015_May_07_1403	LL-Elaine	PME	cueing_effect	82	0					False	1	right	217.343540374	-11.7562366508	0.6	0.083	326.682079351	 	go	1	0.1
SPC614	2015_May_07_1403	LL-Elaine	PME	cueing_effect	83	1	sound	left			False	1	left	-197.531222547	-11.5740776083	0.6	0.083	341.118353885	 	go	1	0.1
SPC614	2015_May_07_1403	LL-Elaine	PME	cueing_effect	84	1	sound	left			False	1	left	-204.997349968	0.578976798627	0.6	0.083	270.358147332	 	go	1	0.1
SPC614	2015_May_07_1403	LL-Elaine	PME	cueing_effect	85	0					False	1	left	-197.703218584	3.32425547562	0.6	0.083	370.900911512	 	go	1	0.1
SPC614	2015_May_07_1403	LL-Elaine	PME	cueing_effect	86	1	frame	right	200	0	False	1	right	205.240487571	-17.0034753284	0.6	0.083	311.377189821	 	go	1	0.1
SPC614	2015_May_07_1403	LL-Elaine	PME	cueing_effect	87	1	sound	right			False	1	right	190.372782265	3.77280363964	0.6	0.083	341.87787096	 	go	1	0.1
SPC614	2015_May_07_1403	LL-Elaine	PME	cueing_effect	88	1	sound	right			False	0					0.083	1080.69039974		nogo	1	0.1
SPC614	2015_May_07_1403	LL-Elaine	PME	cueing_effect	89	1	frame	right	200	0	False	1	right	202.048166788	-11.8151324087	0.6	0.083	313.405776862	 	go	1	0.1
SPC614	2015_May_07_1403	LL-Elaine	PME	cueing_effect	90	1	frame	left	-200	0	False	1	left	-201.346244514	-12.0204751418	0.6	0.083	545.492555015	 	go	1	0.1
SPC614	2015_May_07_1403	LL-Elaine	PME	cueing_effect	91	0					False	0					0.083	1086.33527509		nogo	1	0.1
SPC614	2015_May_07_1403	LL-Elaine	PME	cueing_effect	92	1	frame	right	200	0	False	1	right	203.758819174	14.8098645014	0.6	0.083	307.333492907	 	go	1	0.1
SPC614	2015_May_07_1403	LL-Elaine	PME	cueing_effect	93	1	sound	left			False	1	left	-216.934447468	-19.8586245446	0.6	0.083	341.201140545	 	go	1	0.1
SPC614	2015_May_07_1403	LL-Elaine	PME	cueing_effect	94	1	frame	right	200	0	False	1	right	178.905698883	-3.65414037999	0.6	0.083	337.369222427	 	go	1	0.1
SPC614	2015_May_07_1403	LL-Elaine	PME	cueing_effect	95	0					False	1	left	-214.802446328	-16.6001873262	0.6	0.083	395.312943729	 	go	1	0.1
SPC614	2015_May_07_1403	LL-Elaine	PME	cueing_effect	96	1	sound	right			False	1	right	198.376606767	9.28489246956	0.6	0.083	303.637626814	 	go	1	0.1
SPC614	2015_May_07_1403	LL-Elaine	PME	cueing_effect	97	1	frame	right	200	0	False	1	right	207.599221651	0.994445920456	0.6	0.083	320.614929544	 	go	1	0.1
SPC614	2015_May_07_1403	LL-Elaine	PME	cueing_effect	98	0					False	1	left	-218.075332546	-2.76294489997	0.6	0.083	303.854218917	 	go	1	0.1
SPC614	2015_May_07_1403	LL-Elaine	PME	cueing_effect	99	0					False	1	left	-185.587142786	1.71051762121	0.6	0.083	403.342900798	 	go	1	0.1
SPC614	2015_May_07_1403	LL-Elaine	PME	cueing_effect	100	0					False	1	left	-214.682891493	12.9514699844	0.6	0.083	272.157306783	 	go	1	0.1
SPC614	2015_May_07_1403	LL-Elaine	PME	cueing_effect	101	1	frame	left	-200	0	False	1	left	-195.434314035	11.8306570001	0.6	0.083	272.30844018	 	go	1	0.1
SPC614	2015_May_07_1403	LL-Elaine	PME	cueing_effect	102	0					False	1	right	191.138867842	-14.7402862928	0.6	0.083	344.503289787	 	go	1	0.1
SPC614	2015_May_07_1403	LL-Elaine	PME	cueing_effect	103	1	frame	right	200	0	False	0					0.083	1080.47444932		nogo	1	0.1
SPC614	2015_May_07_1403	LL-Elaine	PME	cueing_effect	104	0					False	1	right	183.43814119	4.74088346395	0.6	0.083	578.402383486	 	go	1	0.1
SPC614	2015_May_07_1403	LL-Elaine	PME	cueing_effect	105	1	frame	left	-200	0	False	0					0.083	1095.11480178		nogo	1	0.1
SPC614	2015_May_07_1403	LL-Elaine	PME	cueing_effect	106	1	sound	right			False	1	right	207.460950015	-22.6661093739	0.6	0.083	272.455402184	 	go	1	0.1
SPC614	2015_May_07_1403	LL-Elaine	PME	cueing_effect	107	1	frame	left	-200	0	False	1	left	-192.342929392	14.4984146414	0.6	0.083	230.625181459	 	go	1	0.1
SPC614	2015_May_07_1403	LL-Elaine	PME	cueing_effect	108	1	sound	left			False	0					0.083	1087.72467426		nogo	1	0.1
SPC614	2015_May_07_1403	LL-Elaine	PME	cueing_effect	109	1	frame	left	-200	0	False	1	left	-194.162045877	3.23730405974	0.6	0.083	343.476161361	 	go	1	0.1
SPC614	2015_May_07_1403	LL-Elaine	PME	cueing_effect	110	1	frame	right	200	0	False	1	right	213.254849735	3.78380692988	0.6	0.083	322.754219174	 	go	1	0.1
SPC614	2015_May_07_1403	LL-Elaine	PME	cueing_effect	111	0					False	1	left	-220.639287609	-6.20242461294	0.6	0.083	411.489336519	 	go	1	0.1
SPC614	2015_May_07_1403	LL-Elaine	PME	cueing_effect	112	1	sound	right			False	1	right	188.516678049	17.8384522977	0.6	0.083	328.424764797	 	go	1	0.1
SPC614	2015_May_07_1403	LL-Elaine	PME	cueing_effect	113	0					False	1	right	219.718274448	20.7489473859	0.6	0.083	295.6397573	 	go	1	0.1
SPC614	2015_May_07_1403	LL-Elaine	PME	cueing_effect	114	1	frame	left	-200	0	False	1	left	-210.81798887	7.97373896709	0.6	0.083	278.538275044	 	go	1	0.1
SPC614	2015_May_07_1403	LL-Elaine	PME	cueing_effect	115	1	frame	right	200	0	False	1	right	208.038930824	-15.8325862429	0.6	0.083	619.363988983	 	go	1	0.1
SPC614	2015_May_07_1403	LL-Elaine	PME	cueing_effect	116	1	sound	right			False	0					0.083	1086.39207063		nogo	1	0.1
SPC614	2015_May_07_1403	LL-Elaine	PME	cueing_effect	117	1	frame	left	-200	0	False	0					0.083	1080.96089959		nogo	1	0.1
SPC614	2015_May_07_1403	LL-Elaine	PME	cueing_effect	118	0					False	1	right	189.484771209	-9.70217377669	0.6	0.083	404.049472883	 	go	1	0.1
SPC614	2015_May_07_1403	LL-Elaine	PME	cueing_effect	119	1	frame	right	200	0	False	1	right	213.220647952	-6.53421233866	0.6	0.083	421.616869047	 	go	1	0.1
SPC614	2015_May_07_1403	LL-Elaine	PME	cueing_effect	120	1	sound	left			False	1	left	-208.933133606	22.3156858677	0.6	0.083	320.571290096	 	go	1	0.1
SPC614	2015_May_07_1403	LL-Elaine	PME	cueing_effect	121	1	frame	right	200	0	False	1	right	197.526084745	-8.16196916276	0.6	0.083	1088.98700611		nogo	0	0.1
SPC614	2015_May_07_1403	LL-Elaine	PME	cueing_effect	122	0					False	1	right	218.904547743	8.68335085152	0.6	0.083	1086.89713152		nogo	0	0.1
SPC614	2015_May_07_1403	LL-Elaine	PME	cueing_effect	123	1	sound	right			False	1	right	190.843214213	13.3899757802	0.6	0.083	241.419818252	 	go	1	0.1
SPC614	2015_May_07_1403	LL-Elaine	PME	cueing_effect	124	0					False	1	left	-210.263885657	-6.6890294468	0.6	0.083	316.740013892	 	go	1	0.1
SPC614	2015_May_07_1403	LL-Elaine	PME	cueing_effect	125	1	sound	left			False	1	left	-177.568712917	-1.84001138889	0.6	0.083	352.179319132	 	go	1	0.1
SPC614	2015_May_07_1403	LL-Elaine	PME	cueing_effect	126	1	frame	right	200	0	False	1	right	196.664858241	3.52517018217	0.6	0.083	445.909214206	 	go	1	0.1
SPC614	2015_May_07_1403	LL-Elaine	PME	cueing_effect	127	1	frame	right	200	0	False	0					0.083	1086.36575844		nogo	1	0.1
SPC614	2015_May_07_1403	LL-Elaine	PME	cueing_effect	128	1	sound	left			False	1	left	-218.207663857	-18.1777179685	0.6	0.083	270.248728106	 	go	1	0.1
SPC614	2015_May_07_1403	LL-Elaine	PME	cueing_effect	129	0					False	1	left	-202.147883495	9.33850189969	0.6	0.083	370.376277016	 	go	1	0.1
SPC614	2015_May_07_1403	LL-Elaine	PME	cueing_effect	130	1	sound	right			False	0					0.083	1084.17801629		nogo	1	0.1
SPC614	2015_May_07_1403	LL-Elaine	PME	cueing_effect	131	0					False	1	right	193.945031669	-21.2855594172	0.6	0.083	374.025936704	 	go	1	0.1
SPC614	2015_May_07_1403	LL-Elaine	PME	cueing_effect	132	0					False	1	right	205.098402107	-3.89429029009	0.6	0.083	402.562526986	 	go	1	0.1
SPC614	2015_May_07_1403	LL-Elaine	PME	cueing_effect	133	1	sound	left			False	1	left	-210.819904383	20.0491361287	0.6	0.083	278.129477287	 	go	1	0.1
SPC614	2015_May_07_1403	LL-Elaine	PME	cueing_effect	134	0					False	1	right	182.860828874	-0.678609104475	0.6	0.083	285.500031197	 	go	1	0.1
SPC614	2015_May_07_1403	LL-Elaine	PME	cueing_effect	135	0					False	1	left	-212.499348069	-2.72944256178	0.6	0.083	376.12319109	 	go	1	0.1
SPC614	2015_May_07_1403	LL-Elaine	PME	cueing_effect	136	1	sound	left			False	1	left	-177.633601481	14.7989936382	0.6	0.083	932.136995485	 	go	1	0.1
SPC614	2015_May_07_1403	LL-Elaine	PME	cueing_effect	137	1	frame	left	-200	0	False	1	left	-220.183861289	13.0162899133	0.6	0.083	414.723139023	 	go	1	0.1
SPC614	2015_May_07_1403	LL-Elaine	PME	cueing_effect	138	1	sound	right			False	1	right	183.269665506	-4.31929655128	0.6	0.083	404.151832685	 	go	1	0.1
SPC614	2015_May_07_1403	LL-Elaine	PME	cueing_effect	139	0					False	1	right	180.684081196	-20.1746176662	0.6	0.083	304.245047737	 	go	1	0.1
SPC614	2015_May_07_1403	LL-Elaine	PME	cueing_effect	140	0					False	1	right	197.298548526	-10.1385966849	0.6	0.083	292.66682826	 	go	1	0.1
SPC614	2015_May_07_1403	LL-Elaine	PME	cueing_effect	141	1	sound	right			False	1	right	213.614388834	0.555045803761	0.6	0.083	222.289428348	 	go	1	0.1
SPC614	2015_May_07_1403	LL-Elaine	PME	cueing_effect	142	1	frame	right	200	0	False	1	right	181.223440994	-3.96119132114	0.6	0.083	248.622553423	 	go	1	0.1
SPC614	2015_May_07_1403	LL-Elaine	PME	cueing_effect	143	1	sound	right			False	1	right	212.157435897	-9.96191156378	0.6	0.083	187.745050061	 	go	1	0.1
SPC614	2015_May_07_1403	LL-Elaine	PME	cueing_effect	144	1	frame	right	200	0	False	1	right	210.371909884	-12.4588480122	0.6	0.083	187.332722591	 	go	1	0.1
SPC614	2015_May_07_1403	LL-Elaine	PME	cueing_effect	145	1	frame	left	-200	0	False	1	left	-212.41127156	4.90916309787	0.6	0.083	271.532558603	 	go	1	0.1
SPC614	2015_May_07_1403	LL-Elaine	PME	cueing_effect	146	0					False	1	left	-179.58102156	21.2268193489	0.6	0.083	375.591818243	 	go	1	0.1
SPC614	2015_May_07_1403	LL-Elaine	PME	cueing_effect	147	0					False	1	left	-218.141632737	-16.1723824519	0.6	0.083	403.126308462	 	go	1	0.1
SPC614	2015_May_07_1403	LL-Elaine	PME	cueing_effect	148	1	sound	right			False	1	right	219.776402719	7.97553295749	0.6	0.083	223.272275645	 	go	1	0.1
SPC614	2015_May_07_1403	LL-Elaine	PME	cueing_effect	149	0					False	1	right	186.621701777	-4.76776809804	0.6	0.083	313.912442187	 	go	1	0.1
SPC614	2015_May_07_1403	LL-Elaine	PME	cueing_effect	150	1	sound	left			False	1	left	-196.460359729	-21.1906923588	0.6	0.083	218.910268275	 	go	1	0.1
SPC614	2015_May_07_1403	LL-Elaine	PME	cueing_effect	151	0					False	1	left	-182.677793253	-15.9616906322	0.6	0.083	409.757881891	 	go	1	0.1
SPC614	2015_May_07_1403	LL-Elaine	PME	cueing_effect	152	1	sound	left			False	1	left	-218.951556425	12.2540722178	0.6	0.083	307.930324692	 	go	1	0.1
SPC614	2015_May_07_1403	LL-Elaine	PME	cueing_effect	153	0					False	1	left	-201.703275253	-21.1971625965	0.6	0.083	270.750259515	 	go	1	0.1
SPC614	2015_May_07_1403	LL-Elaine	PME	cueing_effect	154	1	sound	right			False	1	right	222.490273842	21.397519696	0.6	0.083	244.352317182	 	go	1	0.1
SPC614	2015_May_07_1403	LL-Elaine	PME	cueing_effect	155	0					False	0					0.083	1086.71519416		nogo	1	0.1
SPC614	2015_May_07_1403	LL-Elaine	PME	cueing_effect	156	0					False	1	left	-209.875902911	15.757434128	0.6	0.083	282.298958162	 	go	1	0.1
SPC614	2015_May_07_1403	LL-Elaine	PME	cueing_effect	157	0					False	1	right	186.651429351	-8.90945651502	0.6	0.083	287.264856976	 	go	1	0.1
SPC614	2015_May_07_1403	LL-Elaine	PME	cueing_effect	158	0					False	1	left	-185.307664203	18.5197620195	0.6	0.083	277.705598157	 	go	1	0.1
SPC614	2015_May_07_1403	LL-Elaine	PME	cueing_effect	159	1	frame	left	-200	0	False	0					0.083	1087.30945899		nogo	1	0.1
SPC614	2015_May_07_1403	LL-Elaine	PME	cueing_effect	160	0					False	1	right	222.412562468	-5.90431043601	0.6	0.083	342.159601394	 	go	1	0.1
SPC614	2015_May_07_1403	LL-Elaine	PME	cueing_effect	161	0					False	1	right	202.6921824	3.8099939054	0.6	0.083	530.978627736	 	go	1	0.1
SPC614	2015_May_07_1403	LL-Elaine	PME	cueing_effect	162	1	sound	left			False	1	left	-194.585566893	11.1347228384	0.6	0.083	306.395889027	 	go	1	0.1
SPC614	2015_May_07_1403	LL-Elaine	PME	cueing_effect	163	1	frame	right	200	0	False	1	right	211.257922545	8.10842776324	0.6	0.083	894.866763847	 	go	1	0.1
SPC614	2015_May_07_1403	LL-Elaine	PME	cueing_effect	164	1	frame	left	-200	0	False	1	left	-212.431100273	-2.72936693855	0.6	0.083	180.195446359	 	go	1	0.1
SPC614	2015_May_07_1403	LL-Elaine	PME	cueing_effect	165	0					False	1	right	180.141351913	3.4816298654	0.6	0.083	1086.89199761		nogo	0	0.1
SPC614	2015_May_07_1403	LL-Elaine	PME	cueing_effect	166	1	sound	right			False	1	right	178.67046524	17.2682934762	0.6	0.083	258.410597919	 	go	1	0.1
SPC614	2015_May_07_1403	LL-Elaine	PME	cueing_effect	167	0					False	1	left	-180.577938069	12.3622051233	0.6	0.083	337.266220944	 	go	1	0.1
SPC614	2015_May_07_1403	LL-Elaine	PME	cueing_effect	168	1	frame	right	200	0	False	1	right	217.779634683	-23.5241227477	0.6	0.083	281.699559186	 	go	1	0.1
SPC614	2015_May_07_1403	LL-Elaine	PME	cueing_effect	169	1	sound	left			False	1	left	-184.406923614	-0.805849559709	0.6	0.083	361.97089334	 	go	1	0.1
SPC614	2015_May_07_1403	LL-Elaine	PME	cueing_effect	170	1	sound	right			False	1	right	221.513661931	12.9369942971	0.6	0.083	221.060467651	 	go	1	0.1
SPC614	2015_May_07_1403	LL-Elaine	PME	cueing_effect	171	0					False	1	left	-221.418165752	-19.220763794	0.6	0.083	1079.47427453		nogo	0	0.1
SPC614	2015_May_07_1403	LL-Elaine	PME	cueing_effect	172	1	frame	left	-200	0	False	0					0.083	1079.5660452		nogo	1	0.1
SPC614	2015_May_07_1403	LL-Elaine	PME	cueing_effect	173	1	sound	right			False	1	right	195.342551343	10.530788272	0.6	0.083	215.707269963	 	go	1	0.1
SPC614	2015_May_07_1403	LL-Elaine	PME	cueing_effect	174	1	sound	left			False	1	left	-210.021051057	-23.9698630462	0.6	0.083	273.558257613	 	go	1	0.1
SPC614	2015_May_07_1403	LL-Elaine	PME	cueing_effect	175	1	sound	right			False	1	right	222.629040019	-8.09050086523	0.6	0.083	330.671869218	 	go	1	0.1
SPC614	2015_May_07_1403	LL-Elaine	PME	cueing_effect	176	0					False	1	right	219.613135769	9.01854197425	0.6	0.083	408.387414645	 	go	1	0.1
SPC614	2015_May_07_1403	LL-Elaine	PME	cueing_effect	177	1	frame	right	200	0	False	1	right	195.180546826	-10.4774921321	0.6	0.083	207.159737591	 	go	1	0.1
SPC614	2015_May_07_1403	LL-Elaine	PME	cueing_effect	178	0					False	1	left	-214.977183203	13.7635197296	0.6	0.083	334.364847047	 	go	1	0.1
SPC614	2015_May_07_1403	LL-Elaine	PME	cueing_effect	179	0					False	1	left	-191.089809694	2.53044281677	0.6	0.083	459.226268344	 	go	1	0.1
SPC614	2015_May_07_1403	LL-Elaine	PME	cueing_effect	180	0					False	1	left	-223.076984617	-4.56860412253	0.6	0.083	489.180174191	 	go	1	0.1
SPC614	2015_May_07_1403	LL-Elaine	PME	cueing_effect	181	1	frame	right	200	0	False	1	right	212.63523881	5.18555937435	0.6	0.083	337.331358809	 	go	1	0.1
SPC614	2015_May_07_1403	LL-Elaine	PME	cueing_effect	182	1	sound	right			False	1	right	214.102831982	-18.5219747201	0.6	0.083	337.206858443	 	go	1	0.1
SPC614	2015_May_07_1403	LL-Elaine	PME	cueing_effect	183	1	frame	right	200	0	False	0					0.083	1087.52893913		nogo	1	0.1
SPC614	2015_May_07_1403	LL-Elaine	PME	cueing_effect	184	1	sound	right			False	1	right	188.494952014	-20.4533841907	0.6	0.083	270.57538135	 	go	1	0.1
SPC614	2015_May_07_1403	LL-Elaine	PME	cueing_effect	185	1	sound	right			False	1	right	222.77227085	17.780600866	0.6	0.083	340.294661699	 	go	1	0.1
SPC614	2015_May_07_1403	LL-Elaine	PME	cueing_effect	186	1	frame	right	200	0	False	1	right	202.995659509	17.2113047085	0.6	0.083	648.806737037	 	go	1	0.1
SPC614	2015_May_07_1403	LL-Elaine	PME	cueing_effect	187	1	frame	left	-200	0	False	1	left	-210.724827228	-4.4758775936	0.6	0.083	236.762282904	 	go	1	0.1
SPC614	2015_May_07_1403	LL-Elaine	PME	cueing_effect	188	1	sound	right			False	1	right	177.591126186	12.3463799368	0.6	0.083	270.370982355	 	go	1	0.1
SPC614	2015_May_07_1403	LL-Elaine	PME	cueing_effect	189	1	frame	right	200	0	False	1	right	180.192310143	-10.8338800639	0.6	0.083	291.894155322	 	go	1	0.1
SPC614	2015_May_07_1403	LL-Elaine	PME	cueing_effect	190	1	frame	right	200	0	False	1	right	191.650218069	2.21365572095	0.6	0.083	0.0	 	go	0	0.1
SPC614	2015_May_07_1403	LL-Elaine	PME	cueing_effect	191	1	sound	right			False	1	right	178.919490844	-6.80782141427	0.6	0.083	254.109878093	 	go	1	0.1
SPC614	2015_May_07_1403	LL-Elaine	PME	cueing_effect	192	1	frame	left	-200	0	False	1	left	-189.871989767	0.517215757919	0.6	0.083	225.459055277	 	go	1	0.1
SPC614	2015_May_07_1403	LL-Elaine	PME	cueing_effect	193	0					False	1	left	-205.315060105	-0.453079308944	0.6	0.083	404.878620291	 	go	1	0.1
SPC614	2015_May_07_1403	LL-Elaine	PME	cueing_effect	194	1	frame	right	200	0	False	1	right	205.843989947	-14.5301339083	0.6	0.083	352.643307764	 	go	1	0.1
SPC614	2015_May_07_1403	LL-Elaine	PME	cueing_effect	195	0					False	1	right	178.439208906	-9.74465715816	0.6	0.083	440.392048098	 	go	1	0.1
SPC614	2015_May_07_1403	LL-Elaine	PME	cueing_effect	196	0					False	1	right	221.228239414	-5.91500663402	0.6	0.083	353.555883281	 	go	1	0.1
SPC614	2015_May_07_1403	LL-Elaine	PME	cueing_effect	197	0					False	1	left	-205.23046588	13.7814945318	0.6	0.083	374.665124342	 	go	1	0.1
SPC614	2015_May_07_1403	LL-Elaine	PME	cueing_effect	198	1	sound	right			False	1	right	211.038939301	-20.3674138933	0.6	0.083	367.615126772	 	go	1	0.1
SPC614	2015_May_07_1403	LL-Elaine	PME	cueing_effect	199	0					False	1	right	182.380700123	-0.866944437286	0.6	0.083	1088.02982885		nogo	0	0.1
SPC614	2015_May_07_1403	LL-Elaine	PME	cueing_effect	200	0					False	0					0.083	1079.30003805		nogo	1	0.1
SPC614	2015_May_07_1403	LL-Elaine	PME	cueing_effect	201	1	sound	right			False	1	right	217.213670027	-12.9553683187	0.6	0.083	320.708304876	 	go	1	0.1
SPC614	2015_May_07_1403	LL-Elaine	PME	cueing_effect	202	0					False	1	right	219.836218903	3.16121058893	0.6	0.083	310.116141569	 	go	1	0.1
SPC614	2015_May_07_1403	LL-Elaine	PME	cueing_effect	203	1	frame	right	200	0	False	1	right	178.171369117	22.2603719811	0.6	0.083	664.754986065	 	go	1	0.1
SPC614	2015_May_07_1403	LL-Elaine	PME	cueing_effect	204	0					False	1	right	215.316687196	5.51543335291	0.6	0.083	327.651771018	 	go	1	0.1
SPC614	2015_May_07_1403	LL-Elaine	PME	cueing_effect	205	1	frame	left	-200	0	False	1	left	-177.823789156	4.52729958875	0.6	0.083	272.75927295	 	go	1	0.1
SPC614	2015_May_07_1403	LL-Elaine	PME	cueing_effect	206	1	sound	left			False	0					0.083	1086.73765534		nogo	1	0.1
SPC614	2015_May_07_1403	LL-Elaine	PME	cueing_effect	207	1	frame	left	-200	0	False	1	left	-183.662431818	22.6525588989	0.6	0.083	271.683050087	 	go	1	0.1
SPC614	2015_May_07_1403	LL-Elaine	PME	cueing_effect	208	0					False	1	left	-188.886702245	18.2682232231	0.6	0.083	1081.24038368		nogo	0	0.1
SPC614	2015_May_07_1403	LL-Elaine	PME	cueing_effect	209	1	sound	left			False	1	left	-187.863424771	9.16187828788	0.6	0.083	465.183999157	 	go	1	0.1
SPC614	2015_May_07_1403	LL-Elaine	PME	cueing_effect	210	1	sound	right			False	1	right	207.387309457	-5.4517965	0.6	0.083	324.238918955	 	go	1	0.1
SPC614	2015_May_07_1403	LL-Elaine	PME	cueing_effect	211	1	sound	left			False	1	left	-215.732080249	-21.2102983735	0.6	0.083	406.02639853	 	go	1	0.1
SPC614	2015_May_07_1403	LL-Elaine	PME	cueing_effect	212	0					False	1	right	188.049879246	2.96903466231	0.6	0.083	287.019706797	 	go	1	0.1
SPC614	2015_May_07_1403	LL-Elaine	PME	cueing_effect	213	0					False	1	right	178.829090923	6.33233440562	0.6	0.083	480.829018867	 	go	1	0.1
SPC614	2015_May_07_1403	LL-Elaine	PME	cueing_effect	214	0					False	1	left	-191.366472083	-2.34346793821	0.6	0.083	438.039375003	 	go	1	0.1
SPC614	2015_May_07_1403	LL-Elaine	PME	cueing_effect	215	1	sound	left			False	0					0.083	1080.31529421		nogo	1	0.1
SPC614	2015_May_07_1403	LL-Elaine	PME	cueing_effect	216	1	frame	right	200	0	False	1	right	215.208439289	-6.47380200211	0.6	0.083	296.969473362	 	go	1	0.1
SPC614	2015_May_07_1403	LL-Elaine	PME	cueing_effect	217	1	sound	right			False	1	right	204.287694407	-15.2228713776	0.6	0.083	471.410625149	 	go	1	0.1
SPC614	2015_May_07_1403	LL-Elaine	PME	cueing_effect	218	1	sound	left			False	0					0.083	1081.28241869		nogo	1	0.1
SPC614	2015_May_07_1403	LL-Elaine	PME	cueing_effect	219	1	sound	right			False	0					0.083	1094.71530956		nogo	1	0.1
SPC614	2015_May_07_1403	LL-Elaine	PME	cueing_effect	220	1	frame	left	-200	0	False	1	left	-188.247785404	-12.2265924858	0.6	0.083	300.68555451	 	go	1	0.1
SPC614	2015_May_07_1403	LL-Elaine	PME	cueing_effect	221	1	frame	left	-200	0	False	1	left	-178.121685201	-13.979900269	0.6	0.083	307.269317098	 	go	1	0.1
SPC614	2015_May_07_1403	LL-Elaine	PME	cueing_effect	222	0					False	1	right	189.652144302	-19.9716495799	0.6	0.083	487.440377008	 	go	1	0.1
SPC614	2015_May_07_1403	LL-Elaine	PME	cueing_effect	223	1	sound	right			False	1	right	178.536439819	17.0602888875	0.6	0.083	436.394877965	 	go	1	0.1
SPC614	2015_May_07_1403	LL-Elaine	PME	cueing_effect	224	0					False	1	right	187.808810302	-2.46270233877	0.6	0.083	478.426288813	 	go	1	0.1
SPC614	2015_May_07_1403	LL-Elaine	PME	cueing_effect	225	1	sound	right			False	1	right	195.149747862	-1.52993130431	0.6	0.083	387.509846827	 	go	1	0.1
SPC614	2015_May_07_1403	LL-Elaine	PME	cueing_effect	226	1	sound	left			False	1	left	-181.368356431	-5.21299878142	0.6	0.083	403.184066527	 	go	1	0.1
SPC614	2015_May_07_1403	LL-Elaine	PME	cueing_effect	227	0					False	1	right	185.38214844	15.1938100704	0.6	0.083	317.31310091	 	go	1	0.1
SPC614	2015_May_07_1403	LL-Elaine	PME	cueing_effect	228	1	sound	left			False	1	left	-186.920082403	11.4090897111	0.6	0.083	352.936269017	 	go	1	0.1
SPC614	2015_May_07_1403	LL-Elaine	PME	cueing_effect	229	1	frame	left	-200	0	False	1	left	-197.762707236	-20.9641580806	0.6	0.083	1086.71358973		nogo	0	0.1
SPC614	2015_May_07_1403	LL-Elaine	PME	cueing_effect	230	1	sound	right			False	1	right	188.762403837	22.6991987927	0.6	0.083	339.073081501	 	go	1	0.1
SPC614	2015_May_07_1403	LL-Elaine	PME	cueing_effect	231	0					False	1	right	212.604858797	-0.073901003068	0.6	0.083	454.604671104	 	go	1	0.1
SPC614	2015_May_07_1403	LL-Elaine	PME	cueing_effect	232	1	sound	right			False	1	right	215.531339845	-11.2237438788	0.6	0.083	244.635009905	 	go	1	0.1
SPC614	2015_May_07_1403	LL-Elaine	PME	cueing_effect	233	1	sound	left			False	1	left	-215.324527321	-18.6805627222	0.6	0.083	270.609715255	 	go	1	0.1
SPC614	2015_May_07_1403	LL-Elaine	PME	cueing_effect	234	0					False	1	left	-211.53123348	11.9503575481	0.6	0.083	1086.71006002		nogo	0	0.1
SPC614	2015_May_07_1403	LL-Elaine	PME	cueing_effect	235	0					False	1	right	178.047863731	20.2470324986	0.6	0.083	545.493838377	 	go	1	0.1
SPC614	2015_May_07_1403	LL-Elaine	PME	cueing_effect	236	0					False	1	right	213.391091289	-12.2940758281	0.6	0.083	341.56148578	 	go	1	0.1
SPC614	2015_May_07_1403	LL-Elaine	PME	cueing_effect	237	0					False	1	left	-191.661180571	-5.99105036939	0.6	0.083	284.172882326	 	go	1	0.1
SPC614	2015_May_07_1403	LL-Elaine	PME	cueing_effect	238	1	sound	right			False	1	right	215.47433276	-10.6730053843	0.6	0.083	223.304684274	 	go	1	0.1
SPC614	2015_May_07_1403	LL-Elaine	PME	cueing_effect	239	1	frame	left	-200	0	False	0					0.083	1081.80994098		nogo	1	0.1
SPC614	2015_May_07_1403	LL-Elaine	PME	cueing_effect	240	1	frame	left	-200	0	False	1	left	-182.41583626	-17.5844124977	0.6	0.083	355.267764069	 	go	1	0.1
SPC614	2015_May_07_1403	LL-Elaine	PME	cueing_effect	241	0					False	1	right	222.246046873	16.3194038568	0.6	0.083	395.159564447	 	go	1	0.1
SPC614	2015_May_07_1403	LL-Elaine	PME	cueing_effect	242	0					False	1	right	205.561698581	9.65852744543	0.6	0.083	303.607785143	 	go	1	0.1
SPC614	2015_May_07_1403	LL-Elaine	PME	cueing_effect	243	1	frame	left	-200	0	False	1	left	-207.763548105	-5.40321192763	0.6	0.083	270.807375666	 	go	1	0.1
SPC614	2015_May_07_1403	LL-Elaine	PME	cueing_effect	244	1	frame	right	200	0	False	1	right	222.984535966	12.7440137386	0.6	0.083	192.83833704	 	go	1	0.1
SPC614	2015_May_07_1403	LL-Elaine	PME	cueing_effect	245	0					False	1	left	-192.005098336	8.33640316872	0.6	0.083	21.2080713827	 	go	1	0.1
SPC614	2015_May_07_1403	LL-Elaine	PME	cueing_effect	246	1	sound	right			False	1	right	211.340339443	1.92845207377	0.6	0.083	295.722543728	 	go	1	0.1
SPC614	2015_May_07_1403	LL-Elaine	PME	cueing_effect	247	1	frame	right	200	0	False	1	right	205.562737566	-7.83277742379	0.6	0.083	358.964913758	 	go	1	0.1
SPC614	2015_May_07_1403	LL-Elaine	PME	cueing_effect	248	1	frame	left	-200	0	False	1	left	-191.512196723	20.9229180526	0.6	0.083	255.559922894	 	go	1	0.1
SPC614	2015_May_07_1403	LL-Elaine	PME	cueing_effect	249	1	frame	left	-200	0	False	1	left	-196.876202184	-12.3371865783	0.6	0.083	289.817115758	 	go	1	0.1
SPC614	2015_May_07_1403	LL-Elaine	PME	cueing_effect	250	1	sound	left			False	1	left	-222.823897514	15.132510984	0.6	0.083	545.686043799	 	go	1	0.1
SPC614	2015_May_07_1403	LL-Elaine	PME	cueing_effect	251	1	frame	left	-200	0	False	1	left	-219.36628412	-19.3740334698	0.6	0.083	276.12335165	 	go	1	0.1
SPC614	2015_May_07_1403	LL-Elaine	PME	cueing_effect	252	0					False	0					0.083	1087.52284246		nogo	1	0.1
SPC614	2015_May_07_1403	LL-Elaine	PME	cueing_effect	253	0					False	1	right	215.507577883	2.27438241104	0.6	0.083	428.706976352	 	go	1	0.1
SPC614	2015_May_07_1403	LL-Elaine	PME	cueing_effect	254	1	frame	left	-200	0	False	0					0.083	1080.27871419		nogo	1	0.1
SPC614	2015_May_07_1403	LL-Elaine	PME	cueing_effect	255	1	sound	right			False	0					0.083	1086.33431233		nogo	1	0.1
SPC614	2015_May_07_1403	LL-Elaine	PME	cueing_effect	256	1	sound	right			False	1	right	188.366464797	15.8269419259	0.6	0.083	362.114646239	 	go	1	0.1
SPC614	2015_May_07_1403	LL-Elaine	PME	cueing_effect	257	1	sound	right			False	1	right	177.194402415	21.9320060682	0.6	0.083	304.111562669	 	go	1	0.1
SPC614	2015_May_07_1403	LL-Elaine	PME	cueing_effect	258	0					False	1	left	-215.598311636	11.2355446136	0.6	0.083	397.315860493	 	go	1	0.1
SPC614	2015_May_07_1403	LL-Elaine	PME	cueing_effect	259	1	sound	right			False	1	right	202.580660345	9.88068618212	0.6	0.083	356.374149444	 	go	1	0.1
SPC614	2015_May_07_1403	LL-Elaine	PME	cueing_effect	260	1	frame	right	200	0	False	0					0.083	1086.73123783		nogo	1	0.1
SPC614	2015_May_07_1403	LL-Elaine	PME	cueing_effect	261	0					False	1	left	-205.832067424	-18.7328625774	0.6	0.083	654.618468834	 	go	1	0.1
SPC614	2015_May_07_1403	LL-Elaine	PME	cueing_effect	262	0					False	1	right	186.132445528	-7.93031898506	0.6	0.083	354.53584278	 	go	1	0.1
SPC614	2015_May_07_1403	LL-Elaine	PME	cueing_effect	263	1	sound	right			False	1	right	203.040568611	1.39972749472	0.6	0.083	325.18743258	 	go	1	0.1
SPC614	2015_May_07_1403	LL-Elaine	PME	cueing_effect	264	0					False	1	left	-186.6348315	-20.959759404	0.6	0.083	353.799108183	 	go	1	0.1
SPC614	2015_May_07_1403	LL-Elaine	PME	cueing_effect	265	1	frame	right	200	0	False	1	right	177.77131817	-12.21928149	0.6	0.083	308.800223516	 	go	1	0.1
SPC614	2015_May_07_1403	LL-Elaine	PME	cueing_effect	266	1	frame	left	-200	0	False	1	left	-204.102120999	-4.16825439961	0.6	0.083	369.63986326	 	go	1	0.1
SPC614	2015_May_07_1403	LL-Elaine	PME	cueing_effect	267	1	frame	right	200	0	False	1	right	211.906012084	4.47030857005	0.6	0.083	1077.37830328		nogo	0	0.1
SPC614	2015_May_07_1403	LL-Elaine	PME	cueing_effect	268	0					False	1	left	-222.630079189	-18.9349830517	0.6	0.083	554.922179319	 	go	1	0.1
SPC614	2015_May_07_1403	LL-Elaine	PME	cueing_effect	269	1	frame	left	-200	0	False	1	left	-192.850703786	22.1805433351	0.6	0.083	337.335530203	 	go	1	0.1
SPC614	2015_May_07_1403	LL-Elaine	PME	cueing_effect	270	0					False	1	right	192.642818178	5.36183758213	0.6	0.083	343.430596637	 	go	1	0.1
SPC614	2015_May_07_1403	LL-Elaine	PME	cueing_effect	271	1	sound	left			False	1	left	-209.46130431	-3.69102637937	0.6	0.083	283.998966916	 	go	1	0.1
SPC614	2015_May_07_1403	LL-Elaine	PME	cueing_effect	272	0					False	1	right	200.170260353	-14.5376131828	0.6	0.083	276.719862828	 	go	1	0.1
SPC614	2015_May_07_1403	LL-Elaine	PME	cueing_effect	273	1	frame	left	-200	0	False	1	left	-206.162576198	-23.6939171465	0.6	0.083	176.978008822	 	go	1	0.1
SPC614	2015_May_07_1403	LL-Elaine	PME	cueing_effect	274	1	frame	right	200	0	False	0					0.083	170.278409263	 	go	0	0.1
SPC614	2015_May_07_1403	LL-Elaine	PME	cueing_effect	275	1	frame	right	200	0	False	1	right	201.879684587	8.56380880047	0.6	0.083	341.376339551	 	go	1	0.1
SPC614	2015_May_07_1403	LL-Elaine	PME	cueing_effect	276	0					False	1	right	209.556979468	18.5749478892	0.6	0.083	336.975184968	 	go	1	0.1
SPC614	2015_May_07_1403	LL-Elaine	PME	cueing_effect	277	0					False	1	left	-207.000224289	2.49293676296	0.6	0.083	324.140409473	 	go	1	0.1
SPC614	2015_May_07_1403	LL-Elaine	PME	cueing_effect	278	0					False	1	left	-180.543782512	21.1430852355	0.6	0.083	303.764052456	 	go	1	0.1
SPC614	2015_May_07_1403	LL-Elaine	PME	cueing_effect	279	1	frame	right	200	0	False	1	right	217.773731926	8.6239716622	0.6	0.083	152.521374403	 	go	1	0.1
SPC614	2015_May_07_1403	LL-Elaine	PME	cueing_effect	280	1	frame	right	200	0	False	1	right	193.026683215	-10.1600105813	0.6	0.083	203.45777506	 	go	1	0.1
SPC614	2015_May_07_1403	LL-Elaine	PME	cueing_effect	281	1	sound	left			False	0					0.083	1080.44524956		nogo	1	0.1
SPC614	2015_May_07_1403	LL-Elaine	PME	cueing_effect	282	1	sound	right			False	1	right	220.877963289	20.6986084252	0.6	0.083	295.566597255	 	go	1	0.1
SPC614	2015_May_07_1403	LL-Elaine	PME	cueing_effect	283	1	sound	right			False	1	right	214.061971187	-8.49644527905	0.6	0.083	255.074756453	 	go	1	0.1
SPC614	2015_May_07_1403	LL-Elaine	PME	cueing_effect	284	1	frame	right	200	0	False	1	right	200.601435897	-6.47633523628	0.6	0.083	205.902218819	 	go	1	0.1
SPC614	2015_May_07_1403	LL-Elaine	PME	cueing_effect	285	0					False	1	right	217.94094753	-18.7878094094	0.6	0.083	318.4602377	 	go	1	0.1
SPC614	2015_May_07_1403	LL-Elaine	PME	cueing_effect	286	1	frame	right	200	0	False	1	right	196.714794582	13.9065108552	0.6	0.083	351.002661511	 	go	1	0.1
SPC614	2015_May_07_1403	LL-Elaine	PME	cueing_effect	287	0					False	1	right	202.455606147	-23.97924309	0.6	0.083	369.957211195	 	go	1	0.1
SPC614	2015_May_07_1403	LL-Elaine	PME	cueing_effect	288	1	sound	right			False	1	right	192.679527346	-5.14520041329	0.6	0.083	271.25917119	 	go	1	0.1
SPC614	2015_May_07_1403	LL-Elaine	PME	cueing_effect	289	1	frame	right	200	0	False	1	right	196.661671648	19.7041612184	0.6	0.083	336.648210883	 	go	1	0.1
SPC614	2015_May_07_1403	LL-Elaine	PME	cueing_effect	290	1	frame	left	-200	0	False	0					0.083	523.452769266	 	go	0	0.1
SPC614	2015_May_07_1403	LL-Elaine	PME	cueing_effect	291	1	sound	right			False	1	right	216.329869123	22.2041366153	0.6	0.083	352.632718859	 	go	1	0.1
SPC614	2015_May_07_1403	LL-Elaine	PME	cueing_effect	292	0					False	1	left	-220.878093767	-8.71592888071	0.6	0.083	289.476023288	 	go	1	0.1
SPC614	2015_May_07_1403	LL-Elaine	PME	cueing_effect	293	0					False	0					0.083	1087.52701385		nogo	1	0.1
SPC614	2015_May_07_1403	LL-Elaine	PME	cueing_effect	294	1	sound	left			False	1	left	-194.848360013	9.05843492686	0.6	0.083	320.343467174	 	go	1	0.1
SPC614	2015_May_07_1403	LL-Elaine	PME	cueing_effect	295	1	sound	left			False	1	left	-209.273201113	3.94837394401	0.6	0.083	193.054608535	 	go	1	0.1
SPC614	2015_May_07_1403	LL-Elaine	PME	cueing_effect	296	1	sound	right			False	1	right	182.244065682	19.8140217868	0.6	0.083	298.157361569	 	go	1	0.1
SPC614	2015_May_07_1403	LL-Elaine	PME	cueing_effect	297	1	frame	right	200	0	False	1	right	179.666746387	22.4562633768	0.6	0.083	221.488197334	 	go	1	0.1
SPC614	2015_May_07_1403	LL-Elaine	PME	cueing_effect	298	1	frame	right	200	0	False	1	right	193.416468105	-16.7910700134	0.6	0.083	549.412072403	 	go	1	0.1
SPC614	2015_May_07_1403	LL-Elaine	PME	cueing_effect	299	1	frame	right	200	0	False	1	right	204.55402253	-22.9494364739	0.6	0.083	379.672416253	 	go	1	0.1
SPC614	2015_May_07_1403	LL-Elaine	PME	cueing_effect	300	0					False	1	left	-184.711322875	-12.2115134787	0.6	0.083	1094.97618279		nogo	0	0.1
SPC614	2015_May_07_1403	LL-Elaine	PME	cueing_effect	301	1	sound	left			False	1	left	-201.804609061	-17.7529714299	0.6	0.083	336.619011126	 	go	1	0.1
SPC614	2015_May_07_1403	LL-Elaine	PME	cueing_effect	302	1	frame	right	200	0	False	1	right	199.987630162	-12.9641049595	0.6	0.083	315.412543947	 	go	1	0.1
SPC614	2015_May_07_1403	LL-Elaine	PME	cueing_effect	303	1	sound	left			False	1	left	-189.307637278	-18.4856297138	0.6	0.083	237.688976573	 	go	1	0.1
SPC614	2015_May_07_1403	LL-Elaine	PME	cueing_effect	304	1	frame	left	-200	0	False	1	left	-181.703030316	-0.539270403552	0.6	0.083	337.067597546	 	go	1	0.1
SPC614	2015_May_07_1403	LL-Elaine	PME	cueing_effect	305	1	frame	right	200	0	False	0					0.083	1095.26465158		nogo	1	0.1
SPC614	2015_May_07_1403	LL-Elaine	PME	cueing_effect	306	1	sound	right			False	1	right	181.338264585	-17.2546213678	0.6	0.083	253.52395582	 	go	1	0.1
SPC614	2015_May_07_1403	LL-Elaine	PME	cueing_effect	307	0					False	1	left	-205.692278484	10.8373265556	0.6	0.083	310.445682611	 	go	1	0.1
SPC614	2015_May_07_1403	LL-Elaine	PME	cueing_effect	308	1	sound	right			False	1	right	201.306250108	22.6822986307	0.6	0.083	315.051877871	 	go	1	0.1
SPC614	2015_May_07_1403	LL-Elaine	PME	cueing_effect	309	1	sound	left			False	1	left	-198.289560911	15.389058749	0.6	0.083	239.744517487	 	go	1	0.1
SPC614	2015_May_07_1403	LL-Elaine	PME	cueing_effect	310	0					False	1	right	221.512395282	11.3147965889	0.6	0.083	336.877959082	 	go	1	0.1
SPC614	2015_May_07_1403	LL-Elaine	PME	cueing_effect	311	1	sound	right			False	0					0.083	1086.445336		nogo	1	0.1
SPC614	2015_May_07_1403	LL-Elaine	PME	cueing_effect	312	0					False	1	left	-211.018144278	9.47076078202	0.6	0.083	328.959346283	 	go	1	0.1
SPC614	2015_May_07_1403	LL-Elaine	PME	cueing_effect	313	0					False	0					0.083	1087.25426812		nogo	1	0.1
SPC614	2015_May_07_1403	LL-Elaine	PME	cueing_effect	314	1	sound	left			False	1	left	-191.360161256	-8.07103323954	0.6	0.083	302.38139187	 	go	1	0.1
SPC614	2015_May_07_1403	LL-Elaine	PME	cueing_effect	315	1	frame	right	200	0	False	1	right	207.141875054	12.1007485716	0.6	0.083	570.193376858	 	go	1	0.1
SPC614	2015_May_07_1403	LL-Elaine	PME	cueing_effect	316	1	sound	left			False	1	left	-216.522713921	4.90957066892	0.6	0.083	341.215900611	 	go	1	0.1
SPC614	2015_May_07_1403	LL-Elaine	PME	cueing_effect	317	1	sound	left			False	1	left	-202.561955511	-4.72249583459	0.6	0.083	319.80407238	 	go	1	0.1
SPC614	2015_May_07_1403	LL-Elaine	PME	cueing_effect	318	0					False	1	right	202.298292106	12.5659886319	0.6	0.083	291.193679906	 	go	1	0.1
SPC614	2015_May_07_1403	LL-Elaine	PME	cueing_effect	319	1	frame	right	200	0	False	1	right	197.825547876	0.0450019758093	0.6	0.083	306.075974135	 	go	1	0.1
SPC614	2015_May_07_1403	LL-Elaine	PME	cueing_effect	320	1	sound	right			False	1	right	204.462677104	13.9936228002	0.6	0.083	292.895934545	 	go	1	0.1
SPC614	2015_May_07_1403	LL-Elaine	PME	cueing_effect	321	0					False	0					0.083	1081.27888897		nogo	1	0.1
SPC614	2015_May_07_1403	LL-Elaine	PME	cueing_effect	322	1	frame	left	-200	0	False	1	left	-202.931448567	11.817060806	0.6	0.083	400.912896264	 	go	1	0.1
SPC614	2015_May_07_1403	LL-Elaine	PME	cueing_effect	323	1	sound	left			False	1	left	-191.645742194	-14.6908351817	0.6	0.083	328.78190116	 	go	1	0.1
SPC614	2015_May_07_1403	LL-Elaine	PME	cueing_effect	324	0					False	1	right	193.801460455	-19.591660553	0.6	0.083	311.654748628	 	go	1	0.1
SPC614	2015_May_07_1403	LL-Elaine	PME	cueing_effect	325	1	frame	left	-200	0	False	1	left	-179.381957491	2.65017136601	0.6	0.083	431.45432882	 	go	1	0.1
SPC614	2015_May_07_1403	LL-Elaine	PME	cueing_effect	326	1	sound	right			False	1	right	197.722331401	-18.9820664907	0.6	0.083	326.661864296	 	go	1	0.1
SPC614	2015_May_07_1403	LL-Elaine	PME	cueing_effect	327	1	frame	right	200	0	False	1	right	182.995663478	19.0919809539	0.6	0.083	662.502747495	 	go	1	0.1
SPC614	2015_May_07_1403	LL-Elaine	PME	cueing_effect	328	1	sound	left			False	1	left	-199.461271094	-17.9631919643	0.6	0.083	293.39939123	 	go	1	0.1
SPC614	2015_May_07_1403	LL-Elaine	PME	cueing_effect	329	1	sound	left			False	1	left	-222.011953949	-5.19812422408	0.6	0.083	278.004655847	 	go	1	0.1
SPC614	2015_May_07_1403	LL-Elaine	PME	cueing_effect	330	1	sound	left			False	1	left	-222.441745204	-12.6540236201	0.6	0.083	192.453925963	 	go	1	0.1
SPC614	2015_May_07_1403	LL-Elaine	PME	cueing_effect	331	1	sound	left			False	0					0.083	1086.36992984		nogo	1	0.1
SPC614	2015_May_07_1403	LL-Elaine	PME	cueing_effect	332	0					False	1	left	-215.463273763	-13.9487658872	0.6	0.083	270.767587004	 	go	1	0.1
SPC614	2015_May_07_1403	LL-Elaine	PME	cueing_effect	333	1	sound	right			False	0					0.083	1086.2021111		nogo	1	0.1
SPC614	2015_May_07_1403	LL-Elaine	PME	cueing_effect	334	1	sound	right			False	0					0.083	1094.42748269		nogo	1	0.1
SPC614	2015_May_07_1403	LL-Elaine	PME	cueing_effect	335	1	frame	right	200	0	False	1	right	204.567460195	-20.618984337	0.6	0.083	176.412622677	 	go	1	0.1
SPC614	2015_May_07_1403	LL-Elaine	PME	cueing_effect	336	1	frame	left	-200	0	False	1	left	-183.389112015	-17.4253478947	0.6	0.083	303.557086503	 	go	1	0.1
SPC614	2015_May_07_1403	LL-Elaine	PME	cueing_effect	337	1	frame	right	200	0	False	1	right	199.614400853	22.0153706069	0.6	0.083	293.929159874	 	go	1	0.1
SPC614	2015_May_07_1403	LL-Elaine	PME	cueing_effect	338	1	sound	right			False	0					0.083	1086.21751308		nogo	1	0.1
SPC614	2015_May_07_1403	LL-Elaine	PME	cueing_effect	339	0					False	1	left	-207.740931254	13.9847076742	0.6	0.083	285.621643998	 	go	1	0.1
SPC614	2015_May_07_1403	LL-Elaine	PME	cueing_effect	340	0					False	1	left	-223.35040985	2.82322945	0.6	0.083	489.757753676	 	go	1	0.1
SPC614	2015_May_07_1403	LL-Elaine	PME	cueing_effect	341	0					False	0					0.083	1089.39002827		nogo	1	0.1
SPC614	2015_May_07_1403	LL-Elaine	PME	cueing_effect	342	1	frame	right	200	0	False	1	right	212.864170712	5.68650522931	0.6	0.083	272.815426346	 	go	1	0.1
SPC614	2015_May_07_1403	LL-Elaine	PME	cueing_effect	343	1	frame	right	200	0	False	1	right	215.401788826	-4.82377555968	0.6	0.083	271.965422202	 	go	1	0.1
SPC614	2015_May_07_1403	LL-Elaine	PME	cueing_effect	344	0					False	0					0.083	1087.05564495		nogo	1	0.1
SPC614	2015_May_07_1403	LL-Elaine	PME	cueing_effect	345	1	frame	left	-200	0	False	1	left	-201.620240408	1.91628512302	0.6	0.083	443.276094273	 	go	1	0.1
SPC614	2015_May_07_1403	LL-Elaine	PME	cueing_effect	346	1	sound	left			False	1	left	-199.660680538	-1.55030867964	0.6	0.083	298.885753378	 	go	1	0.1
SPC614	2015_May_07_1403	LL-Elaine	PME	cueing_effect	347	0					False	1	right	183.893933542	-19.0507840143	0.6	0.083	565.057092113	 	go	1	0.1
SPC614	2015_May_07_1403	LL-Elaine	PME	cueing_effect	348	1	sound	left			False	1	left	-181.915917904	12.3015008979	0.6	0.083	303.351724986	 	go	1	0.1
SPC614	2015_May_07_1403	LL-Elaine	PME	cueing_effect	349	1	sound	right			False	0					0.083	1086.64652635		nogo	1	0.1
SPC614	2015_May_07_1403	LL-Elaine	PME	cueing_effect	350	1	frame	left	-200	0	False	1	left	-196.931442424	21.1750821187	0.6	0.083	497.154298704	 	go	1	0.1
SPC614	2015_May_07_1403	LL-Elaine	PME	cueing_effect	351	1	sound	left			False	1	left	-207.801661889	-21.436202627	0.6	0.083	440.118660452	 	go	1	0.1
SPC614	2015_May_07_1403	LL-Elaine	PME	cueing_effect	352	0					False	1	right	191.509931001	6.76210585753	0.6	0.083	653.071518755	 	go	1	0.1
SPC614	2015_May_07_1403	LL-Elaine	PME	cueing_effect	353	1	frame	right	200	0	False	1	right	188.393235851	13.591529796	0.6	0.083	303.721375763	 	go	1	0.1
SPC614	2015_May_07_1403	LL-Elaine	PME	cueing_effect	354	1	sound	left			False	1	left	-188.744074732	13.567730087	0.6	0.083	240.170963574	 	go	1	0.1
SPC614	2015_May_07_1403	LL-Elaine	PME	cueing_effect	355	1	sound	right			False	1	right	188.341235877	-3.02573848816	0.6	0.083	284.045173088	 	go	1	0.1
SPC614	2015_May_07_1403	LL-Elaine	PME	cueing_effect	356	0					False	1	right	191.803007423	-17.001468796	0.6	0.083	392.413816415	 	go	1	0.1
SPC614	2015_May_07_1403	LL-Elaine	PME	cueing_effect	357	1	frame	right	200	0	False	1	right	182.803504208	1.61408763927	0.6	0.083	1085.92936513		nogo	0	0.1
SPC614	2015_May_07_1403	LL-Elaine	PME	cueing_effect	358	0					False	1	left	-206.876433107	20.4673884773	0.6	0.083	285.891501699	 	go	1	0.1
SPC614	2015_May_07_1403	LL-Elaine	PME	cueing_effect	359	1	frame	right	200	0	False	0					0.083	370.504627936	 	go	0	0.1
