subj_id	date	computer	experimenter	part	trial_ix	cue_present	cue_type	cue_loc	cue_pos_x	cue_pos_y	mask_flicker	target_present	target_loc	target_pos_x	target_pos_y	target_opacity	target_duration	rt	key	response	is_correct
SPC612	2015_May_07_1334	LL-George	PME	practice	0	0					False	0					0.083	1086.98445628		nogo	1	0.1
SPC612	2015_May_07_1334	LL-George	PME	practice	1	0					False	1	right	176.336913115	11.71536256	0.6	0.083	606.4803591	 	go	1	0.1
SPC612	2015_May_07_1334	LL-George	PME	practice	2	0					False	1	right	219.035272901	-10.1558146753	0.6	0.083	517.738200258	 	go	1	0.1
SPC612	2015_May_07_1334	LL-George	PME	practice	3	0					False	1	left	-189.71280252	7.83075243375	0.6	0.083	445.232328027	 	go	1	0.1
SPC612	2015_May_07_1334	LL-George	PME	practice	4	0					False	1	right	220.30214258	8.86030728908	0.6	0.083	536.693736911	 	go	1	0.1
SPC612	2015_May_07_1334	LL-George	PME	practice	5	0					False	1	right	209.801004714	6.39345336134	0.6	0.083	537.99193562	 	go	1	0.1
SPC612	2015_May_07_1334	LL-George	PME	practice	6	0					False	0					0.083	1085.20731749		nogo	1	0.1
SPC612	2015_May_07_1334	LL-George	PME	practice	7	0					False	1	right	203.433195255	-20.2674292557	0.6	0.083	502.123141894	 	go	1	0.1
SPC612	2015_May_07_1334	LL-George	PME	practice	8	0					False	1	right	186.426313374	-9.13385824007	0.6	0.083	1085.4497212		nogo	0	0.1
SPC612	2015_May_07_1334	LL-George	PME	practice	9	0					False	0					0.083	1080.73769975		nogo	1	0.1
SPC612	2015_May_07_1334	LL-George	PME	cueing_effect	0	0					False	1	left	-217.894621978	-10.4332879352	0.6	0.083	590.727046365	 	go	1	0.1
SPC612	2015_May_07_1334	LL-George	PME	cueing_effect	1	0					False	1	right	203.370678494	12.3467007461	0.6	0.083	561.906665331	 	go	1	0.1
SPC612	2015_May_07_1334	LL-George	PME	cueing_effect	2	1	frame	right	200	0	False	1	right	217.352062465	14.306313758	0.6	0.083	196.496696677	 	go	1	0.1
SPC612	2015_May_07_1334	LL-George	PME	cueing_effect	3	1	frame	right	200	0	False	1	right	193.750389114	-10.3045567397	0.6	0.083	223.20475406	 	go	1	0.1
SPC612	2015_May_07_1334	LL-George	PME	cueing_effect	4	1	frame	left	-200	0	False	1	left	-220.806257232	-22.1659132357	0.6	0.083	594.657214824	 	go	1	0.1
SPC612	2015_May_07_1334	LL-George	PME	cueing_effect	5	1	sound	left			False	1	left	-189.869091111	5.11100236739	0.6	0.083	589.497057954	 	go	1	0.1
SPC612	2015_May_07_1334	LL-George	PME	cueing_effect	6	1	frame	right	200	0	False	1	right	213.013715879	18.5318487072	0.6	0.083	580.764653627	 	go	1	0.1
SPC612	2015_May_07_1334	LL-George	PME	cueing_effect	7	1	sound	right			False	1	right	208.897930023	-10.6256736254	0.6	0.083	484.730944503	 	go	1	0.1
SPC612	2015_May_07_1334	LL-George	PME	cueing_effect	8	1	frame	left	-200	0	False	1	left	-187.805843741	2.77340033304	0.6	0.083	644.446807913	 	go	1	0.1
SPC612	2015_May_07_1334	LL-George	PME	cueing_effect	9	1	frame	right	200	0	False	1	right	194.065425554	21.7550567817	0.6	0.083	511.100516887	 	go	1	0.1
SPC612	2015_May_07_1334	LL-George	PME	cueing_effect	10	1	frame	right	200	0	False	1	right	221.715212923	-11.6788578184	0.6	0.083	400.567686884	 	go	1	0.1
SPC612	2015_May_07_1334	LL-George	PME	cueing_effect	11	0					False	0					0.083	1085.90849163		nogo	1	0.1
SPC612	2015_May_07_1334	LL-George	PME	cueing_effect	12	1	frame	right	200	0	False	1	right	182.958180546	-23.8581983708	0.6	0.083	383.133683354	 	go	1	0.1
SPC612	2015_May_07_1334	LL-George	PME	cueing_effect	13	1	frame	left	-200	0	False	1	left	-213.308328277	1.98947252344	0.6	0.083	512.81494624	 	go	1	0.1
SPC612	2015_May_07_1334	LL-George	PME	cueing_effect	14	1	sound	left			False	1	left	-221.121252249	22.8710483335	0.6	0.083	601.126939291	 	go	1	0.1
SPC612	2015_May_07_1334	LL-George	PME	cueing_effect	15	1	sound	right			False	1	right	187.759259711	-21.0578369311	0.6	0.083	476.714016637	 	go	1	0.1
SPC612	2015_May_07_1334	LL-George	PME	cueing_effect	16	1	frame	right	200	0	False	0					0.083	1080.02735744		nogo	1	0.1
SPC612	2015_May_07_1334	LL-George	PME	cueing_effect	17	0					False	0					0.083	1085.94149654		nogo	1	0.1
SPC612	2015_May_07_1334	LL-George	PME	cueing_effect	18	1	frame	right	200	0	False	1	right	212.992000721	18.0389081216	0.6	0.083	429.985826137	 	go	1	0.1
SPC612	2015_May_07_1334	LL-George	PME	cueing_effect	19	1	sound	left			False	1	left	-190.087657585	7.81606549169	0.6	0.083	451.576266438	 	go	1	0.1
SPC612	2015_May_07_1334	LL-George	PME	cueing_effect	20	0					False	1	left	-215.586813767	14.9851549418	0.6	0.083	511.812326033	 	go	1	0.1
SPC612	2015_May_07_1334	LL-George	PME	cueing_effect	21	0					False	0					0.083	1081.42383816		nogo	1	0.1
SPC612	2015_May_07_1334	LL-George	PME	cueing_effect	22	1	frame	right	200	0	False	1	right	213.12795911	-7.52901287089	0.6	0.083	423.589079641	 	go	1	0.1
SPC612	2015_May_07_1334	LL-George	PME	cueing_effect	23	0					False	0					0.083	1081.17666701		nogo	1	0.1
SPC612	2015_May_07_1334	LL-George	PME	cueing_effect	24	0					False	0					0.083	1085.82414547		nogo	1	0.1
SPC612	2015_May_07_1334	LL-George	PME	cueing_effect	25	1	frame	right	200	0	False	1	right	176.054356252	-17.41468142	0.6	0.083	388.389921747	 	go	1	0.1
SPC612	2015_May_07_1334	LL-George	PME	cueing_effect	26	1	sound	right			False	1	right	177.600309674	22.2662859693	0.6	0.083	570.740651805	 	go	1	0.1
SPC612	2015_May_07_1334	LL-George	PME	cueing_effect	27	0					False	0					0.083	1085.63344949		nogo	1	0.1
SPC612	2015_May_07_1334	LL-George	PME	cueing_effect	28	0					False	1	right	185.357477189	-19.8038860074	0.6	0.083	402.897843858	 	go	1	0.1
SPC612	2015_May_07_1334	LL-George	PME	cueing_effect	29	1	sound	right			False	1	right	220.338679494	19.086692546	0.6	0.083	556.872660993	 	go	1	0.1
SPC612	2015_May_07_1334	LL-George	PME	cueing_effect	30	0					False	1	right	176.551402558	20.9480229058	0.6	0.083	521.427065134	 	go	1	0.1
SPC612	2015_May_07_1334	LL-George	PME	cueing_effect	31	1	sound	left			False	1	left	-191.423120522	-12.0042418808	0.6	0.083	412.20050212	 	go	1	0.1
SPC612	2015_May_07_1334	LL-George	PME	cueing_effect	32	1	sound	right			False	0					0.083	1085.37894394		nogo	1	0.1
SPC612	2015_May_07_1334	LL-George	PME	cueing_effect	33	0					False	1	left	-196.159710012	3.77623311559	0.6	0.083	449.19770211	 	go	1	0.1
SPC612	2015_May_07_1334	LL-George	PME	cueing_effect	34	1	frame	left	-200	0	False	0					0.083	1088.00944663		nogo	1	0.1
SPC612	2015_May_07_1334	LL-George	PME	cueing_effect	35	1	sound	left			False	1	left	-187.334498261	-6.49417798567	0.6	0.083	476.514152717	 	go	1	0.1
SPC612	2015_May_07_1334	LL-George	PME	cueing_effect	36	1	frame	left	-200	0	False	1	left	-217.599165618	17.9333433064	0.6	0.083	446.868278785	 	go	1	0.1
SPC612	2015_May_07_1334	LL-George	PME	cueing_effect	37	0					False	1	left	-178.711993748	-12.1062718457	0.6	0.083	524.167218246	 	go	1	0.1
SPC612	2015_May_07_1334	LL-George	PME	cueing_effect	38	1	frame	right	200	0	False	1	right	214.466253594	-7.68765263914	0.6	0.083	535.834505223	 	go	1	0.1
SPC612	2015_May_07_1334	LL-George	PME	cueing_effect	39	1	sound	right			False	0					0.083	1085.36500833		nogo	1	0.1
SPC612	2015_May_07_1334	LL-George	PME	cueing_effect	40	1	frame	left	-200	0	False	0					0.083	1074.73628037		nogo	1	0.1
SPC612	2015_May_07_1334	LL-George	PME	cueing_effect	41	1	sound	left			False	1	left	-184.685246514	-14.6401071106	0.6	0.083	469.359390205	 	go	1	0.1
SPC612	2015_May_07_1334	LL-George	PME	cueing_effect	42	0					False	1	right	187.030762093	-16.4996008651	0.6	0.083	412.197568221	 	go	1	0.1
SPC612	2015_May_07_1334	LL-George	PME	cueing_effect	43	0					False	1	left	-181.77450678	-17.1755623584	0.6	0.083	523.857337423	 	go	1	0.1
SPC612	2015_May_07_1334	LL-George	PME	cueing_effect	44	0					False	1	left	-182.858856087	-17.834742624	0.6	0.083	392.696714727	 	go	1	0.1
SPC612	2015_May_07_1334	LL-George	PME	cueing_effect	45	1	sound	left			False	0					0.083	1085.48822743		nogo	1	0.1
SPC612	2015_May_07_1334	LL-George	PME	cueing_effect	46	1	sound	right			False	1	right	189.844472504	0.382952475115	0.6	0.083	276.09425527	 	go	1	0.1
SPC612	2015_May_07_1334	LL-George	PME	cueing_effect	47	0					False	1	left	-206.696212409	-7.18103033354	0.6	0.083	374.176111305	 	go	1	0.1
SPC612	2015_May_07_1334	LL-George	PME	cueing_effect	48	1	sound	left			False	1	left	-189.660423839	-15.0671613646	0.6	0.083	304.11774735	 	go	1	0.1
SPC612	2015_May_07_1334	LL-George	PME	cueing_effect	49	1	sound	left			False	1	left	-208.00816683	-5.10738130137	0.6	0.083	325.741192792	 	go	1	0.1
SPC612	2015_May_07_1334	LL-George	PME	cueing_effect	50	1	frame	left	-200	0	False	1	left	-209.838979575	-4.29084531297	0.6	0.083	379.012818681	 	go	1	0.1
SPC612	2015_May_07_1334	LL-George	PME	cueing_effect	51	1	frame	left	-200	0	False	1	left	-185.296741644	7.79433767277	0.6	0.083	348.71051088	 	go	1	0.1
SPC612	2015_May_07_1334	LL-George	PME	cueing_effect	52	1	frame	right	200	0	False	1	right	212.777848585	-0.0239655754788	0.6	0.083	390.736581292	 	go	1	0.1
SPC612	2015_May_07_1334	LL-George	PME	cueing_effect	53	1	sound	right			False	1	right	203.443882537	1.37469939654	0.6	0.083	305.988400476	 	go	1	0.1
SPC612	2015_May_07_1334	LL-George	PME	cueing_effect	54	1	frame	right	200	0	False	0					0.083	1085.99650534		nogo	1	0.1
SPC612	2015_May_07_1334	LL-George	PME	cueing_effect	55	1	frame	right	200	0	False	1	right	191.275815285	7.83757910955	0.6	0.083	416.356205242	 	go	1	0.1
SPC612	2015_May_07_1334	LL-George	PME	cueing_effect	56	1	frame	right	200	0	False	1	right	217.324483632	5.71931039182	0.6	0.083	378.656730754	 	go	1	0.1
SPC612	2015_May_07_1334	LL-George	PME	cueing_effect	57	1	sound	left			False	1	left	-213.273194862	-13.9063008102	0.6	0.083	536.236433545	 	go	1	0.1
SPC612	2015_May_07_1334	LL-George	PME	cueing_effect	58	0					False	1	left	-213.071488322	-14.9332317696	0.6	0.083	450.314373244	 	go	1	0.1
SPC612	2015_May_07_1334	LL-George	PME	cueing_effect	59	1	sound	left			False	1	left	-207.107232248	6.74543498843	0.6	0.083	456.166536082	 	go	1	0.1
SPC612	2015_May_07_1334	LL-George	PME	cueing_effect	60	0					False	1	right	214.388780069	10.335174277	0.6	0.083	441.080292221	 	go	1	0.1
SPC612	2015_May_07_1334	LL-George	PME	cueing_effect	61	0					False	1	left	-187.069934867	20.7078471413	0.6	0.083	470.913928468	 	go	1	0.1
SPC612	2015_May_07_1334	LL-George	PME	cueing_effect	62	1	frame	right	200	0	False	1	right	176.834630431	-18.9805306785	0.6	0.083	278.084826656	 	go	1	0.1
SPC612	2015_May_07_1334	LL-George	PME	cueing_effect	63	1	sound	left			False	1	left	-191.298060268	22.5227372261	0.6	0.083	318.823333131	 	go	1	0.1
SPC612	2015_May_07_1334	LL-George	PME	cueing_effect	64	1	frame	left	-200	0	False	1	left	-221.499688119	-7.93259321803	0.6	0.083	388.279904844	 	go	1	0.1
SPC612	2015_May_07_1334	LL-George	PME	cueing_effect	65	1	sound	left			False	1	left	-208.441596876	-23.2715539055	0.6	0.083	355.035012821	 	go	1	0.1
SPC612	2015_May_07_1334	LL-George	PME	cueing_effect	66	1	sound	right			False	1	right	199.713937797	-21.5801852642	0.6	0.083	402.884274954	 	go	1	0.1
SPC612	2015_May_07_1334	LL-George	PME	cueing_effect	67	1	frame	left	-200	0	False	1	left	-205.656621359	16.6123259211	0.6	0.083	498.867743183	 	go	1	0.1
SPC612	2015_May_07_1334	LL-George	PME	cueing_effect	68	1	frame	left	-200	0	False	0					0.083	1085.25719191		nogo	1	0.1
SPC612	2015_May_07_1334	LL-George	PME	cueing_effect	69	0					False	1	left	-210.47393004	-1.32828030244	0.6	0.083	438.596478431	 	go	1	0.1
SPC612	2015_May_07_1334	LL-George	PME	cueing_effect	70	0					False	1	left	-187.892719078	9.7951088948	0.6	0.083	428.047696128	 	go	1	0.1
SPC612	2015_May_07_1334	LL-George	PME	cueing_effect	71	1	frame	left	-200	0	False	1	left	-193.893668096	-0.204857463604	0.6	0.083	361.279569333	 	go	1	0.1
SPC612	2015_May_07_1334	LL-George	PME	cueing_effect	72	0					False	1	left	-202.455998057	-0.147160323748	0.6	0.083	346.092843218	 	go	1	0.1
SPC612	2015_May_07_1334	LL-George	PME	cueing_effect	73	0					False	1	left	-216.531829833	8.07537334953	0.6	0.083	311.902539805	 	go	1	0.1
SPC612	2015_May_07_1334	LL-George	PME	cueing_effect	74	0					False	1	left	-193.756232935	-18.9378522941	0.6	0.083	342.0115849	 	go	1	0.1
SPC612	2015_May_07_1334	LL-George	PME	cueing_effect	75	0					False	0					0.083	1085.54873639		nogo	1	0.1
SPC612	2015_May_07_1334	LL-George	PME	cueing_effect	76	0					False	1	left	-220.540375471	-18.1220229171	0.6	0.083	477.37228428	 	go	1	0.1
SPC612	2015_May_07_1334	LL-George	PME	cueing_effect	77	1	frame	right	200	0	False	1	right	206.409772706	-22.66360867	0.6	0.083	412.312719272	 	go	1	0.1
SPC612	2015_May_07_1334	LL-George	PME	cueing_effect	78	1	sound	left			False	1	left	-210.759501405	19.298564807	0.6	0.083	694.523911225	 	go	1	0.1
SPC612	2015_May_07_1334	LL-George	PME	cueing_effect	79	1	frame	left	-200	0	False	1	left	-179.776002836	-3.18174183912	0.6	0.083	502.920764033	 	go	1	0.1
SPC612	2015_May_07_1334	LL-George	PME	cueing_effect	80	0					False	1	right	187.909682286	-16.3728578095	0.6	0.083	347.476121737	 	go	1	0.1
SPC612	2015_May_07_1334	LL-George	PME	cueing_effect	81	0					False	1	left	-199.003262971	-22.277568109	0.6	0.083	549.251060234	 	go	1	0.1
SPC612	2015_May_07_1334	LL-George	PME	cueing_effect	82	1	sound	right			False	0					0.083	1093.94265548		nogo	1	0.1
SPC612	2015_May_07_1334	LL-George	PME	cueing_effect	83	1	frame	right	200	0	False	1	right	209.679029835	7.31588206257	0.6	0.083	436.157404911	 	go	1	0.1
SPC612	2015_May_07_1334	LL-George	PME	cueing_effect	84	0					False	1	right	217.410312969	7.77193641882	0.6	0.083	502.025593771	 	go	1	0.1
SPC612	2015_May_07_1334	LL-George	PME	cueing_effect	85	0					False	1	left	-185.862740795	12.033063199	0.6	0.083	308.226509951	 	go	1	0.1
SPC612	2015_May_07_1334	LL-George	PME	cueing_effect	86	0					False	1	right	210.713777176	-14.5035936944	0.6	0.083	349.884757306	 	go	1	0.1
SPC612	2015_May_07_1334	LL-George	PME	cueing_effect	87	0					False	1	left	-222.260753104	22.0327333563	0.6	0.083	316.060076468	 	go	1	0.1
SPC612	2015_May_07_1334	LL-George	PME	cueing_effect	88	0					False	0					0.083	1088.07288972		nogo	1	0.1
SPC612	2015_May_07_1334	LL-George	PME	cueing_effect	89	0					False	0					0.083	1085.13177256		nogo	1	0.1
SPC612	2015_May_07_1334	LL-George	PME	cueing_effect	90	0					False	1	right	193.100001602	13.7384512016	0.6	0.083	413.224758813	 	go	1	0.1
SPC612	2015_May_07_1334	LL-George	PME	cueing_effect	91	1	frame	right	200	0	False	0					0.083	1080.90455853		nogo	1	0.1
SPC612	2015_May_07_1334	LL-George	PME	cueing_effect	92	1	frame	right	200	0	False	1	right	214.707883533	3.5528380147	0.6	0.083	312.245425535	 	go	1	0.1
SPC612	2015_May_07_1334	LL-George	PME	cueing_effect	93	1	frame	right	200	0	False	1	right	221.934654106	14.1348457796	0.6	0.083	392.47264713	 	go	1	0.1
SPC612	2015_May_07_1334	LL-George	PME	cueing_effect	94	1	sound	right			False	1	right	182.775894154	19.4150909342	0.6	0.083	424.145031488	 	go	1	0.1
SPC612	2015_May_07_1334	LL-George	PME	cueing_effect	95	1	sound	right			False	0					0.083	1078.93122314		nogo	1	0.1
SPC612	2015_May_07_1334	LL-George	PME	cueing_effect	96	1	sound	left			False	1	left	-207.573194905	3.11519742666	0.6	0.083	439.698480535	 	go	1	0.1
SPC612	2015_May_07_1334	LL-George	PME	cueing_effect	97	0					False	0					0.083	1080.90932597		nogo	1	0.1
SPC612	2015_May_07_1334	LL-George	PME	cueing_effect	98	1	sound	right			False	1	right	192.876461331	19.4643303378	0.6	0.083	413.830585079	 	go	1	0.1
SPC612	2015_May_07_1334	LL-George	PME	cueing_effect	99	1	sound	right			False	1	right	180.641493662	-8.51979869697	0.6	0.083	435.66049519	 	go	1	0.1
SPC612	2015_May_07_1334	LL-George	PME	cueing_effect	100	0					False	1	left	-212.626689588	19.8152375934	0.6	0.083	497.288634768	 	go	1	0.1
SPC612	2015_May_07_1334	LL-George	PME	cueing_effect	101	1	frame	right	200	0	False	1	right	187.719131494	11.7570793992	0.6	0.083	448.935862165	 	go	1	0.1
SPC612	2015_May_07_1334	LL-George	PME	cueing_effect	102	1	frame	right	200	0	False	1	right	214.640032411	-2.38614556847	0.6	0.083	403.186821379	 	go	1	0.1
SPC612	2015_May_07_1334	LL-George	PME	cueing_effect	103	1	sound	left			False	1	left	-215.6776348	-16.9418501491	0.6	0.083	402.70714811	 	go	1	0.1
SPC612	2015_May_07_1334	LL-George	PME	cueing_effect	104	1	sound	right			False	1	right	204.853725486	5.12570300348	0.6	0.083	419.638374588	 	go	1	0.1
SPC612	2015_May_07_1334	LL-George	PME	cueing_effect	105	1	sound	left			False	0					0.083	1086.62946871		nogo	1	0.1
SPC612	2015_May_07_1334	LL-George	PME	cueing_effect	106	0					False	1	right	218.920381314	11.1001648714	0.6	0.083	493.787531974	 	go	1	0.1
SPC612	2015_May_07_1334	LL-George	PME	cueing_effect	107	1	frame	right	200	0	False	1	right	193.499751595	-15.004735819	0.6	0.083	406.922260299	 	go	1	0.1
SPC612	2015_May_07_1334	LL-George	PME	cueing_effect	108	1	sound	left			False	1	left	-201.092373638	-4.69937767307	0.6	0.083	470.993873896	 	go	1	0.1
SPC612	2015_May_07_1334	LL-George	PME	cueing_effect	109	1	sound	right			False	1	right	210.179203606	1.91149970293	0.6	0.083	386.645788094	 	go	1	0.1
SPC612	2015_May_07_1334	LL-George	PME	cueing_effect	110	1	frame	right	200	0	False	1	right	198.533749608	19.5758652816	0.6	0.083	406.063395552	 	go	1	0.1
SPC612	2015_May_07_1334	LL-George	PME	cueing_effect	111	1	frame	right	200	0	False	1	right	218.046705882	-10.8171802194	0.6	0.083	422.461407026	 	go	1	0.1
SPC612	2015_May_07_1334	LL-George	PME	cueing_effect	112	1	sound	left			False	1	left	-211.653452031	-16.058287734	0.6	0.083	322.127505671	 	go	1	0.1
SPC612	2015_May_07_1334	LL-George	PME	cueing_effect	113	0					False	1	right	201.302017199	-1.68233456275	0.6	0.083	343.618197599	 	go	1	0.1
SPC612	2015_May_07_1334	LL-George	PME	cueing_effect	114	1	sound	left			False	1	left	-215.626925435	19.3045167507	0.6	0.083	340.263417223	 	go	1	0.1
SPC612	2015_May_07_1334	LL-George	PME	cueing_effect	115	1	frame	left	-200	0	False	1	left	-188.138650493	-7.40451820737	0.6	0.083	420.404091943	 	go	1	0.1
SPC612	2015_May_07_1334	LL-George	PME	cueing_effect	116	1	frame	left	-200	0	False	1	left	-182.368611518	-5.46857836129	0.6	0.083	459.62729957	 	go	1	0.1
SPC612	2015_May_07_1334	LL-George	PME	cueing_effect	117	1	frame	right	200	0	False	0					0.083	1083.24021637		nogo	1	0.1
SPC612	2015_May_07_1334	LL-George	PME	cueing_effect	118	1	frame	left	-200	0	False	1	left	-196.98658166	6.49235006475	0.6	0.083	349.843684584	 	go	1	0.1
SPC612	2015_May_07_1334	LL-George	PME	cueing_effect	119	0					False	0					0.083	1082.56507944		nogo	1	0.1
SPC612	2015_May_07_1334	LL-George	PME	cueing_effect	120	1	frame	right	200	0	False	0					0.083	1085.96900082		nogo	1	0.1
SPC612	2015_May_07_1334	LL-George	PME	cueing_effect	121	1	frame	left	-200	0	False	0					0.083	1081.0351118		nogo	1	0.1
SPC612	2015_May_07_1334	LL-George	PME	cueing_effect	122	1	frame	left	-200	0	False	1	left	-216.394935426	-7.36317472005	0.6	0.083	368.525278987	 	go	1	0.1
SPC612	2015_May_07_1334	LL-George	PME	cueing_effect	123	1	sound	left			False	1	left	-216.800948116	15.2720862336	0.6	0.083	457.396157784	 	go	1	0.1
SPC612	2015_May_07_1334	LL-George	PME	cueing_effect	124	1	sound	right			False	1	right	218.485893528	-4.60748927272	0.6	0.083	316.379125463	 	go	1	0.1
SPC612	2015_May_07_1334	LL-George	PME	cueing_effect	125	0					False	1	right	184.283118339	13.8419259788	0.6	0.083	369.240755215	 	go	1	0.1
SPC612	2015_May_07_1334	LL-George	PME	cueing_effect	126	1	frame	right	200	0	False	0					0.083	1085.90115723		nogo	1	0.1
SPC612	2015_May_07_1334	LL-George	PME	cueing_effect	127	1	sound	left			False	0					0.083	1080.76373697		nogo	1	0.1
SPC612	2015_May_07_1334	LL-George	PME	cueing_effect	128	0					False	1	left	-182.894320207	-4.72116772856	0.6	0.083	362.890216056	 	go	1	0.1
SPC612	2015_May_07_1334	LL-George	PME	cueing_effect	129	0					False	1	right	193.5498821	22.7698973864	0.6	0.083	345.263316063	 	go	1	0.1
SPC612	2015_May_07_1334	LL-George	PME	cueing_effect	130	0					False	1	right	181.34974494	-19.7741485679	0.6	0.083	325.763562694	 	go	1	0.1
SPC612	2015_May_07_1334	LL-George	PME	cueing_effect	131	1	frame	left	-200	0	False	1	left	-222.603957643	9.6451649574	0.6	0.083	339.481197298	 	go	1	0.1
SPC612	2015_May_07_1334	LL-George	PME	cueing_effect	132	0					False	0					0.083	1080.66985593		nogo	1	0.1
SPC612	2015_May_07_1334	LL-George	PME	cueing_effect	133	0					False	1	right	180.682442805	-5.12117024614	0.6	0.083	349.204853177	 	go	1	0.1
SPC612	2015_May_07_1334	LL-George	PME	cueing_effect	134	0					False	1	left	-202.595117532	-17.5605354029	0.6	0.083	361.78381322	 	go	1	0.1
SPC612	2015_May_07_1334	LL-George	PME	cueing_effect	135	1	frame	right	200	0	False	1	right	211.9319018	21.0356904848	0.6	0.083	363.297645235	 	go	1	0.1
SPC612	2015_May_07_1334	LL-George	PME	cueing_effect	136	1	sound	left			False	1	left	-193.298389643	-7.17846481084	0.6	0.083	268.791336566	 	go	1	0.1
SPC612	2015_May_07_1334	LL-George	PME	cueing_effect	137	1	sound	right			False	1	right	180.858408121	-0.631473980264	0.6	0.083	359.373710584	 	go	1	0.1
SPC612	2015_May_07_1334	LL-George	PME	cueing_effect	138	1	sound	left			False	1	left	-189.435792492	20.0745151524	0.6	0.083	284.757348709	 	go	1	0.1
SPC612	2015_May_07_1334	LL-George	PME	cueing_effect	139	0					False	1	right	204.460073845	8.92382816286	0.6	0.083	302.230224945	 	go	1	0.1
SPC612	2015_May_07_1334	LL-George	PME	cueing_effect	140	1	frame	right	200	0	False	1	right	191.477540191	-4.08273822456	0.6	0.083	375.484211836	 	go	1	0.1
SPC612	2015_May_07_1334	LL-George	PME	cueing_effect	141	0					False	1	left	-213.83346991	-20.7604817354	0.6	0.083	339.645489119	 	go	1	0.1
SPC612	2015_May_07_1334	LL-George	PME	cueing_effect	142	1	frame	left	-200	0	False	1	left	-202.596953684	14.7546914045	0.6	0.083	441.281989682	 	go	1	0.1
SPC612	2015_May_07_1334	LL-George	PME	cueing_effect	143	0					False	1	right	207.476177652	6.08314999565	0.6	0.083	484.743413283	 	go	1	0.1
SPC612	2015_May_07_1334	LL-George	PME	cueing_effect	144	1	sound	right			False	1	right	196.739463223	-7.87525761254	0.6	0.083	372.106327675	 	go	1	0.1
SPC612	2015_May_07_1334	LL-George	PME	cueing_effect	145	0					False	1	left	-222.495664447	13.4304347065	0.6	0.083	309.980545426	 	go	1	0.1
SPC612	2015_May_07_1334	LL-George	PME	cueing_effect	146	0					False	1	left	-184.997676051	12.8615224562	0.6	0.083	547.858613543	 	go	1	0.1
SPC612	2015_May_07_1334	LL-George	PME	cueing_effect	147	1	frame	left	-200	0	False	1	left	-192.241881869	-16.9333385512	0.6	0.083	462.144118268	 	go	1	0.1
SPC612	2015_May_07_1334	LL-George	PME	cueing_effect	148	0					False	1	right	208.778298584	7.3781403146	0.6	0.083	802.678910317	 	go	1	0.1
SPC612	2015_May_07_1334	LL-George	PME	cueing_effect	149	1	sound	left			False	1	left	-192.806169806	-9.14806270973	0.6	0.083	379.180044401	 	go	1	0.1
SPC612	2015_May_07_1334	LL-George	PME	cueing_effect	150	1	frame	right	200	0	False	1	right	210.305610645	-19.173090271	0.6	0.083	357.010182226	 	go	1	0.1
SPC612	2015_May_07_1334	LL-George	PME	cueing_effect	151	1	frame	left	-200	0	False	1	left	-184.46483965	19.5432669532	0.6	0.083	280.933529837	 	go	1	0.1
SPC612	2015_May_07_1334	LL-George	PME	cueing_effect	152	1	frame	right	200	0	False	1	right	219.247429749	-4.57963545314	0.6	0.083	289.148854557	 	go	1	0.1
SPC612	2015_May_07_1334	LL-George	PME	cueing_effect	153	0					False	0					0.083	1085.24509007		nogo	1	0.1
SPC612	2015_May_07_1334	LL-George	PME	cueing_effect	154	1	sound	left			False	0					0.083	1081.9618206		nogo	1	0.1
SPC612	2015_May_07_1334	LL-George	PME	cueing_effect	155	1	frame	right	200	0	False	0					0.083	1083.40524137		nogo	1	0.1
SPC612	2015_May_07_1334	LL-George	PME	cueing_effect	156	0					False	1	left	-205.175391965	3.82354719423	0.6	0.083	321.914806729	 	go	1	0.1
SPC612	2015_May_07_1334	LL-George	PME	cueing_effect	157	1	frame	left	-200	0	False	1	left	-207.390588186	-5.86513057015	0.6	0.083	353.743781801	 	go	1	0.1
SPC612	2015_May_07_1334	LL-George	PME	cueing_effect	158	1	sound	right			False	1	right	213.027577326	20.6653465603	0.6	0.083	402.217939729	 	go	1	0.1
SPC612	2015_May_07_1334	LL-George	PME	cueing_effect	159	1	sound	right			False	1	right	214.377045745	-2.08925684908	0.6	0.083	345.230310922	 	go	1	0.1
SPC612	2015_May_07_1334	LL-George	PME	cueing_effect	160	0					False	1	right	190.615543644	-1.56911331709	0.6	0.083	402.395066805	 	go	1	0.1
SPC612	2015_May_07_1334	LL-George	PME	cueing_effect	161	1	frame	left	-200	0	False	0					0.083	1085.40204749		nogo	1	0.1
SPC612	2015_May_07_1334	LL-George	PME	cueing_effect	162	1	frame	right	200	0	False	1	right	203.557987438	2.77661527739	0.6	0.083	370.8660712	 	go	1	0.1
SPC612	2015_May_07_1334	LL-George	PME	cueing_effect	163	0					False	1	left	-195.310031764	22.0909485993	0.6	0.083	383.033201331	 	go	1	0.1
SPC612	2015_May_07_1334	LL-George	PME	cueing_effect	164	1	frame	right	200	0	False	1	right	193.579659808	-8.86069559989	0.6	0.083	319.452262949	 	go	1	0.1
SPC612	2015_May_07_1334	LL-George	PME	cueing_effect	165	1	sound	left			False	1	left	-197.133806817	-7.49361590248	0.6	0.083	285.324668977	 	go	1	0.1
SPC612	2015_May_07_1334	LL-George	PME	cueing_effect	166	0					False	1	right	194.61310307	-14.9841101109	0.6	0.083	272.376785753	 	go	1	0.1
SPC612	2015_May_07_1334	LL-George	PME	cueing_effect	167	1	frame	left	-200	0	False	1	left	-199.717214662	17.8805953134	0.6	0.083	302.500866354	 	go	1	0.1
SPC612	2015_May_07_1334	LL-George	PME	cueing_effect	168	0					False	1	left	-220.968245861	-17.2134476019	0.6	0.083	327.840680955	 	go	1	0.1
SPC612	2015_May_07_1334	LL-George	PME	cueing_effect	169	1	sound	right			False	1	right	190.617236396	-9.4320714759	0.6	0.083	477.427292615	 	go	1	0.1
SPC612	2015_May_07_1334	LL-George	PME	cueing_effect	170	1	sound	left			False	0					0.083	1079.34525306		nogo	1	0.1
SPC612	2015_May_07_1334	LL-George	PME	cueing_effect	171	1	frame	right	200	0	False	1	right	195.672703014	4.05394366009	0.6	0.083	335.78316425	 	go	1	0.1
SPC612	2015_May_07_1334	LL-George	PME	cueing_effect	172	1	sound	left			False	1	left	-201.679127302	9.97755565272	0.6	0.083	274.717944209	 	go	1	0.1
SPC612	2015_May_07_1334	LL-George	PME	cueing_effect	173	1	frame	right	200	0	False	1	right	218.564546183	-9.28765829024	0.6	0.083	347.722559702	 	go	1	0.1
SPC612	2015_May_07_1334	LL-George	PME	cueing_effect	174	1	sound	left			False	1	left	-178.844545593	-18.0000955032	0.6	0.083	341.82565636	 	go	1	0.1
SPC612	2015_May_07_1334	LL-George	PME	cueing_effect	175	0					False	1	right	203.520236678	18.0991348403	0.6	0.083	432.620363077	 	go	1	0.1
SPC612	2015_May_07_1334	LL-George	PME	cueing_effect	176	0					False	1	right	196.419232117	6.38976889533	0.6	0.083	402.307786746	 	go	1	0.1
SPC612	2015_May_07_1334	LL-George	PME	cueing_effect	177	1	frame	right	200	0	False	1	right	203.47580407	7.4785695948	0.6	0.083	384.313797345	 	go	1	0.1
SPC612	2015_May_07_1334	LL-George	PME	cueing_effect	178	1	frame	left	-200	0	False	1	left	-182.896806392	-8.1387992235	0.6	0.083	444.417103194	 	go	1	0.1
SPC612	2015_May_07_1334	LL-George	PME	cueing_effect	179	0					False	1	left	-185.434684994	-2.03324772608	0.6	0.083	546.074873768	 	go	1	0.1
SPC612	2015_May_07_1334	LL-George	PME	cueing_effect	180	1	frame	left	-200	0	False	1	left	-205.755837753	-17.3710718606	0.6	0.083	385.221803095	 	go	1	0.1
SPC612	2015_May_07_1334	LL-George	PME	cueing_effect	181	1	sound	right			False	0					0.083	1085.74566687		nogo	1	0.1
SPC612	2015_May_07_1334	LL-George	PME	cueing_effect	182	1	frame	left	-200	0	False	1	left	-203.8968659	14.6223230115	0.6	0.083	321.881068172	 	go	1	0.1
SPC612	2015_May_07_1334	LL-George	PME	cueing_effect	183	1	sound	left			False	1	left	-205.322833968	19.1652534991	0.6	0.083	403.084505815	 	go	1	0.1
SPC612	2015_May_07_1334	LL-George	PME	cueing_effect	184	0					False	1	left	-212.245289298	14.1426047725	0.6	0.083	336.018966977	 	go	1	0.1
SPC612	2015_May_07_1334	LL-George	PME	cueing_effect	185	0					False	1	left	-185.876792389	16.4481341609	0.6	0.083	360.39320007	 	go	1	0.1
SPC612	2015_May_07_1334	LL-George	PME	cueing_effect	186	1	sound	right			False	1	right	179.075038266	10.344459469	0.6	0.083	363.741012989	 	go	1	0.1
SPC612	2015_May_07_1334	LL-George	PME	cueing_effect	187	1	frame	right	200	0	False	1	right	219.779452527	-8.5246079202	0.6	0.083	276.67954471	 	go	1	0.1
SPC612	2015_May_07_1334	LL-George	PME	cueing_effect	188	0					False	1	right	196.5322056	9.98343008652	0.6	0.083	326.066109119	 	go	1	0.1
SPC612	2015_May_07_1334	LL-George	PME	cueing_effect	189	1	sound	left			False	1	left	-203.818383169	-16.7937707326	0.6	0.083	262.658263789	 	go	1	0.1
SPC612	2015_May_07_1334	LL-George	PME	cueing_effect	190	0					False	1	left	-185.998314235	-15.8561675154	0.6	0.083	339.173883665	 	go	1	0.1
SPC612	2015_May_07_1334	LL-George	PME	cueing_effect	191	1	frame	left	-200	0	False	1	left	-180.523777909	-3.95357688681	0.6	0.083	305.485990131	 	go	1	0.1
SPC612	2015_May_07_1334	LL-George	PME	cueing_effect	192	0					False	0					0.083	1079.08598008		nogo	1	0.1
SPC612	2015_May_07_1334	LL-George	PME	cueing_effect	193	1	sound	left			False	1	left	-205.246302006	6.67768101031	0.6	0.083	274.753516307	 	go	1	0.1
SPC612	2015_May_07_1334	LL-George	PME	cueing_effect	194	1	sound	right			False	1	right	217.456250397	21.1768825951	0.6	0.083	314.157518558	 	go	1	0.1
SPC612	2015_May_07_1334	LL-George	PME	cueing_effect	195	1	frame	left	-200	0	False	1	left	-193.525008534	-14.2037511463	0.6	0.083	439.796028659	 	go	1	0.1
SPC612	2015_May_07_1334	LL-George	PME	cueing_effect	196	0					False	0					0.083	1080.91225987		nogo	1	0.1
SPC612	2015_May_07_1334	LL-George	PME	cueing_effect	197	1	sound	right			False	1	right	201.850822939	-2.84871490399	0.6	0.083	305.469121085	 	go	1	0.1
SPC612	2015_May_07_1334	LL-George	PME	cueing_effect	198	1	sound	right			False	1	right	185.514343801	-17.2394803148	0.6	0.083	269.103417639	 	go	1	0.1
SPC612	2015_May_07_1334	LL-George	PME	cueing_effect	199	1	sound	right			False	1	right	178.855695881	13.0227246452	0.6	0.083	306.857167045	 	go	1	0.1
SPC612	2015_May_07_1334	LL-George	PME	cueing_effect	200	1	frame	left	-200	0	False	0					0.083	1080.80957737		nogo	1	0.1
SPC612	2015_May_07_1334	LL-George	PME	cueing_effect	201	1	sound	left			False	1	left	-197.407453108	18.0001504484	0.6	0.083	325.8350736	 	go	1	0.1
SPC612	2015_May_07_1334	LL-George	PME	cueing_effect	202	1	frame	left	-200	0	False	1	left	-214.345963507	-8.93855669892	0.6	0.083	317.598111928	 	go	1	0.1
SPC612	2015_May_07_1334	LL-George	PME	cueing_effect	203	1	frame	right	200	0	False	1	right	181.855600329	9.14175352016	0.6	0.083	313.847270794	 	go	1	0.1
SPC612	2015_May_07_1334	LL-George	PME	cueing_effect	204	0					False	1	left	-204.414047801	-20.2251631859	0.6	0.083	290.524065262	 	go	1	0.1
SPC612	2015_May_07_1334	LL-George	PME	cueing_effect	205	1	sound	right			False	1	right	196.866258858	-16.2282740912	0.6	0.083	272.721505025	 	go	1	0.1
SPC612	2015_May_07_1334	LL-George	PME	cueing_effect	206	1	sound	left			False	1	left	-189.364960878	1.82165658156	0.6	0.083	277.33781212	 	go	1	0.1
SPC612	2015_May_07_1334	LL-George	PME	cueing_effect	207	1	sound	left			False	1	left	-179.627529103	0.32481435062	0.6	0.083	274.763418129	 	go	1	0.1
SPC612	2015_May_07_1334	LL-George	PME	cueing_effect	208	1	sound	left			False	1	left	-189.161164286	-21.360581768	0.6	0.083	284.296378028	 	go	1	0.1
SPC612	2015_May_07_1334	LL-George	PME	cueing_effect	209	0					False	1	left	-204.204900291	18.6101424276	0.6	0.083	435.945805628	 	go	1	0.1
SPC612	2015_May_07_1334	LL-George	PME	cueing_effect	210	1	sound	right			False	1	right	192.313238738	-3.99555991686	0.6	0.083	469.291179674	 	go	1	0.1
SPC612	2015_May_07_1334	LL-George	PME	cueing_effect	211	0					False	1	left	-220.433550565	12.6160302577	0.6	0.083	270.697561791	 	go	1	0.1
SPC612	2015_May_07_1334	LL-George	PME	cueing_effect	212	1	frame	right	200	0	False	1	right	178.999799137	20.5719706882	0.6	0.083	308.686380507	 	go	1	0.1
SPC612	2015_May_07_1334	LL-George	PME	cueing_effect	213	1	sound	right			False	1	right	178.455234561	-15.1242427356	0.6	0.083	320.44388121	 	go	1	0.1
SPC612	2015_May_07_1334	LL-George	PME	cueing_effect	214	0					False	1	left	-213.938301202	-8.47369760177	0.6	0.083	371.367381187	 	go	1	0.1
SPC612	2015_May_07_1334	LL-George	PME	cueing_effect	215	0					False	1	right	217.813203527	7.94161081156	0.6	0.083	257.077108836	 	go	1	0.1
SPC612	2015_May_07_1334	LL-George	PME	cueing_effect	216	1	sound	right			False	0					0.083	1085.5938436		nogo	1	0.1
SPC612	2015_May_07_1334	LL-George	PME	cueing_effect	217	0					False	1	left	-208.390016128	-9.08494105614	0.6	0.083	340.741623659	 	go	1	0.1
SPC612	2015_May_07_1334	LL-George	PME	cueing_effect	218	1	frame	left	-200	0	False	1	left	-220.999702738	4.35294261467	0.6	0.083	317.833548179	 	go	1	0.1
SPC612	2015_May_07_1334	LL-George	PME	cueing_effect	219	0					False	1	left	-210.25009807	17.9374016632	0.6	0.083	402.956886217	 	go	1	0.1
SPC612	2015_May_07_1334	LL-George	PME	cueing_effect	220	1	sound	left			False	1	left	-182.721185487	7.13323245484	0.6	0.083	286.982256221	 	go	1	0.1
SPC612	2015_May_07_1334	LL-George	PME	cueing_effect	221	0					False	0					0.083	1079.01740284		nogo	1	0.1
SPC612	2015_May_07_1334	LL-George	PME	cueing_effect	222	1	sound	left			False	1	left	-194.400533429	-11.8434952014	0.6	0.083	304.582385113	 	go	1	0.1
SPC612	2015_May_07_1334	LL-George	PME	cueing_effect	223	0					False	1	left	-181.637932838	-3.81813497075	0.6	0.083	351.056436775	 	go	1	0.1
SPC612	2015_May_07_1334	LL-George	PME	cueing_effect	224	0					False	1	left	-179.060619455	-12.2946110831	0.6	0.083	682.584149064	 	go	1	0.1
SPC612	2015_May_07_1334	LL-George	PME	cueing_effect	225	1	frame	left	-200	0	False	1	left	-223.950836192	14.0949317534	0.6	0.083	329.931734595	 	go	1	0.1
SPC612	2015_May_07_1334	LL-George	PME	cueing_effect	226	1	frame	left	-200	0	False	1	left	-198.578794237	-20.9053476437	0.6	0.083	314.389654202	 	go	1	0.1
SPC612	2015_May_07_1334	LL-George	PME	cueing_effect	227	0					False	0					0.083	1084.9018374		nogo	1	0.1
SPC612	2015_May_07_1334	LL-George	PME	cueing_effect	228	1	sound	left			False	1	left	-199.280175354	-2.75295253631	0.6	0.083	282.613120275	 	go	1	0.1
SPC612	2015_May_07_1334	LL-George	PME	cueing_effect	229	0					False	1	left	-193.27973493	-12.1392843839	0.6	0.083	414.061620366	 	go	1	0.1
SPC612	2015_May_07_1334	LL-George	PME	cueing_effect	230	1	frame	right	200	0	False	1	right	184.40483312	22.7726673804	0.6	0.083	310.346534709	 	go	1	0.1
SPC612	2015_May_07_1334	LL-George	PME	cueing_effect	231	0					False	0					0.083	1085.42405092		nogo	1	0.1
SPC612	2015_May_07_1334	LL-George	PME	cueing_effect	232	0					False	1	left	-184.895464662	13.7053680019	0.6	0.083	388.407524442	 	go	1	0.1
SPC612	2015_May_07_1334	LL-George	PME	cueing_effect	233	0					False	1	left	-202.384505227	-15.9675427729	0.6	0.083	375.248775585	 	go	1	0.1
SPC612	2015_May_07_1334	LL-George	PME	cueing_effect	234	1	frame	right	200	0	False	1	right	190.685563489	-1.0858161709	0.6	0.083	506.818294292	 	go	1	0.1
SPC612	2015_May_07_1334	LL-George	PME	cueing_effect	235	1	frame	right	200	0	False	1	right	183.713786693	12.0762147174	0.6	0.083	329.571245937	 	go	1	0.1
SPC612	2015_May_07_1334	LL-George	PME	cueing_effect	236	1	frame	left	-200	0	False	1	left	-177.330803717	-18.0168330686	0.6	0.083	435.70120167	 	go	1	0.1
SPC612	2015_May_07_1334	LL-George	PME	cueing_effect	237	1	frame	left	-200	0	False	1	left	-213.157123097	8.72394078312	0.6	0.083	469.521115068	 	go	1	0.1
SPC612	2015_May_07_1334	LL-George	PME	cueing_effect	238	1	sound	left			False	1	left	-196.964170833	-19.736438828	0.6	0.083	412.397065433	 	go	1	0.1
SPC612	2015_May_07_1334	LL-George	PME	cueing_effect	239	0					False	1	left	-184.199450921	-11.5740685377	0.6	0.083	302.373246755	 	go	1	0.1
SPC612	2015_May_07_1334	LL-George	PME	cueing_effect	240	0					False	1	right	212.487448999	-19.5167094341	0.6	0.083	303.004010115	 	go	1	0.1
SPC612	2015_May_07_1334	LL-George	PME	cueing_effect	241	1	frame	right	200	0	False	1	right	187.954005623	7.8024128479	0.6	0.083	406.442586798	 	go	1	0.1
SPC612	2015_May_07_1334	LL-George	PME	cueing_effect	242	1	sound	left			False	1	left	-216.163437634	-4.0113455237	0.6	0.083	271.375632379	 	go	1	0.1
SPC612	2015_May_07_1334	LL-George	PME	cueing_effect	243	0					False	1	left	-179.299834895	7.45174584612	0.6	0.083	269.47674132	 	go	1	0.1
SPC612	2015_May_07_1334	LL-George	PME	cueing_effect	244	1	sound	left			False	0					0.083	1081.44437452		nogo	1	0.1
SPC612	2015_May_07_1334	LL-George	PME	cueing_effect	245	1	sound	left			False	1	left	-197.858980252	-23.4589290006	0.6	0.083	336.201961618	 	go	1	0.1
SPC612	2015_May_07_1334	LL-George	PME	cueing_effect	246	0					False	0					0.083	1085.4350524		nogo	1	0.1
SPC612	2015_May_07_1334	LL-George	PME	cueing_effect	247	0					False	1	right	207.784726854	-20.3133534488	0.6	0.083	357.247818494	 	go	1	0.1
SPC612	2015_May_07_1334	LL-George	PME	cueing_effect	248	0					False	1	left	-188.092290462	-18.5180882898	0.6	0.083	312.261194689	 	go	1	0.1
SPC612	2015_May_07_1334	LL-George	PME	cueing_effect	249	1	frame	left	-200	0	False	1	left	-208.299958024	15.7344932861	0.6	0.083	325.643277727	 	go	1	0.1
SPC612	2015_May_07_1334	LL-George	PME	cueing_effect	250	0					False	1	right	216.055762346	-15.9075109558	0.6	0.083	274.950813269	 	go	1	0.1
SPC612	2015_May_07_1334	LL-George	PME	cueing_effect	251	1	frame	right	200	0	False	1	right	198.147065326	5.41003102273	0.6	0.083	351.774846902	 	go	1	0.1
SPC612	2015_May_07_1334	LL-George	PME	cueing_effect	252	1	frame	left	-200	0	False	1	left	-195.089069235	22.8895194505	0.6	0.083	1085.20255028		nogo	0	0.1
SPC612	2015_May_07_1334	LL-George	PME	cueing_effect	253	1	sound	right			False	1	right	189.86828181	-5.23209056244	0.6	0.083	387.225943385	 	go	1	0.1
SPC612	2015_May_07_1334	LL-George	PME	cueing_effect	254	0					False	0					0.083	1079.32251622		nogo	1	0.1
SPC612	2015_May_07_1334	LL-George	PME	cueing_effect	255	1	sound	right			False	0					0.083	1085.62464826		nogo	1	0.1
SPC612	2015_May_07_1334	LL-George	PME	cueing_effect	256	1	sound	right			False	1	right	212.493849324	-9.71375207589	0.6	0.083	380.347323138	 	go	1	0.1
SPC612	2015_May_07_1334	LL-George	PME	cueing_effect	257	1	frame	right	200	0	False	1	right	178.761535143	-8.86365509975	0.6	0.083	355.340126203	 	go	1	0.1
SPC612	2015_May_07_1334	LL-George	PME	cueing_effect	258	0					False	1	left	-219.922413554	-22.6969410574	0.6	0.083	369.10836841	 	go	1	0.1
SPC612	2015_May_07_1334	LL-George	PME	cueing_effect	259	0					False	0					0.083	1078.82120623		nogo	1	0.1
SPC612	2015_May_07_1334	LL-George	PME	cueing_effect	260	1	sound	right			False	1	right	187.527424697	20.0145218078	0.6	0.083	436.29162549	 	go	1	0.1
SPC612	2015_May_07_1334	LL-George	PME	cueing_effect	261	1	sound	left			False	1	left	-213.760412351	-4.90152714138	0.6	0.083	336.303543765	 	go	1	0.1
SPC612	2015_May_07_1334	LL-George	PME	cueing_effect	262	0					False	0					0.083	1082.85589074		nogo	1	0.1
SPC612	2015_May_07_1334	LL-George	PME	cueing_effect	263	1	sound	right			False	1	right	189.964809613	-22.5234312883	0.6	0.083	344.081001822	 	go	1	0.1
SPC612	2015_May_07_1334	LL-George	PME	cueing_effect	264	1	sound	right			False	1	right	188.24042998	-4.15196696089	0.6	0.083	363.563152496	 	go	1	0.1
SPC612	2015_May_07_1334	LL-George	PME	cueing_effect	265	1	frame	left	-200	0	False	1	left	-184.269340706	-9.12321181595	0.6	0.083	338.877204573	 	go	1	0.1
SPC612	2015_May_07_1334	LL-George	PME	cueing_effect	266	1	sound	right			False	1	right	195.864061226	10.5403175273	0.6	0.083	340.651776642	 	go	1	0.1
SPC612	2015_May_07_1334	LL-George	PME	cueing_effect	267	1	frame	right	200	0	False	1	right	188.788796988	20.2916962317	0.6	0.083	274.973916821	 	go	1	0.1
SPC612	2015_May_07_1334	LL-George	PME	cueing_effect	268	0					False	1	right	200.141760563	-3.28449507596	0.6	0.083	434.405569686	 	go	1	0.1
SPC612	2015_May_07_1334	LL-George	PME	cueing_effect	269	1	sound	left			False	1	left	-186.412478107	-15.5559221591	0.6	0.083	369.138439652	 	go	1	0.1
SPC612	2015_May_07_1334	LL-George	PME	cueing_effect	270	0					False	1	left	-203.4937825	11.822475322	0.6	0.083	537.502727704	 	go	1	0.1
SPC612	2015_May_07_1334	LL-George	PME	cueing_effect	271	1	frame	right	200	0	False	1	right	189.356939532	-12.4894373247	0.6	0.083	308.987460099	 	go	1	0.1
SPC612	2015_May_07_1334	LL-George	PME	cueing_effect	272	1	frame	left	-200	0	False	1	left	-205.083868077	-10.9379704374	0.6	0.083	264.565589372	 	go	1	0.1
SPC612	2015_May_07_1334	LL-George	PME	cueing_effect	273	0					False	0					0.083	1085.27956204		nogo	1	0.1
SPC612	2015_May_07_1334	LL-George	PME	cueing_effect	274	1	sound	left			False	0					0.083	1076.82843413		nogo	1	0.1
SPC612	2015_May_07_1334	LL-George	PME	cueing_effect	275	1	frame	right	200	0	False	1	right	200.458117306	5.82410718319	0.6	0.083	347.534430679	 	go	1	0.1
SPC612	2015_May_07_1334	LL-George	PME	cueing_effect	276	1	sound	left			False	0					0.083	1085.89418954		nogo	1	0.1
SPC612	2015_May_07_1334	LL-George	PME	cueing_effect	277	1	sound	left			False	1	left	-182.367775377	-23.2095631853	0.6	0.083	262.536878698	 	go	1	0.1
SPC612	2015_May_07_1334	LL-George	PME	cueing_effect	278	1	frame	left	-200	0	False	0					0.083	0.0	 	go	0	0.1
SPC612	2015_May_07_1334	LL-George	PME	cueing_effect	279	0					False	1	left	-199.067470083	-21.6361054229	0.6	0.083	407.94064966	 	go	1	0.1
SPC612	2015_May_07_1334	LL-George	PME	cueing_effect	280	1	sound	left			False	1	left	-179.646730893	6.32134617474	0.6	0.083	305.199213093	 	go	1	0.1
SPC612	2015_May_07_1334	LL-George	PME	cueing_effect	281	1	sound	left			False	1	left	-200.081445702	-6.73518399706	0.6	0.083	294.698104728	 	go	1	0.1
SPC612	2015_May_07_1334	LL-George	PME	cueing_effect	282	1	frame	right	200	0	False	1	right	180.600055052	5.75650217488	0.6	0.083	309.486569837	 	go	1	0.1
SPC612	2015_May_07_1334	LL-George	PME	cueing_effect	283	0					False	1	right	186.479973119	-23.8703506506	0.6	0.083	339.826649986	 	go	1	0.1
SPC612	2015_May_07_1334	LL-George	PME	cueing_effect	284	1	frame	right	200	0	False	1	right	195.501488182	-11.2397564948	0.6	0.083	345.261115814	 	go	1	0.1
SPC612	2015_May_07_1334	LL-George	PME	cueing_effect	285	1	frame	right	200	0	False	1	right	179.586004941	-17.0215001054	0.6	0.083	351.69783514	 	go	1	0.1
SPC612	2015_May_07_1334	LL-George	PME	cueing_effect	286	1	sound	left			False	1	left	-185.220784392	18.2393540038	0.6	0.083	321.909305872	 	go	1	0.1
SPC612	2015_May_07_1334	LL-George	PME	cueing_effect	287	1	sound	right			False	1	right	211.711157204	0.645372374125	0.6	0.083	290.200615767	 	go	1	0.1
SPC612	2015_May_07_1334	LL-George	PME	cueing_effect	288	1	sound	right			False	1	right	189.711348186	-17.4573367588	0.6	0.083	269.564755028	 	go	1	0.1
SPC612	2015_May_07_1334	LL-George	PME	cueing_effect	289	1	sound	right			False	1	right	194.733634591	-4.18645544552	0.6	0.083	280.928762164	 	go	1	0.1
SPC612	2015_May_07_1334	LL-George	PME	cueing_effect	290	1	frame	left	-200	0	False	1	left	-204.181410343	11.1020216685	0.6	0.083	339.902561624	 	go	1	0.1
SPC612	2015_May_07_1334	LL-George	PME	cueing_effect	291	1	sound	left			False	1	left	-205.626271261	13.7434578835	0.6	0.083	379.053891869	 	go	1	0.1
SPC612	2015_May_07_1334	LL-George	PME	cueing_effect	292	1	frame	right	200	0	False	1	right	217.573652189	-22.1206752656	0.6	0.083	389.126301277	 	go	1	0.1
SPC612	2015_May_07_1334	LL-George	PME	cueing_effect	293	0					False	0					0.083	1093.61370513		nogo	1	0.1
SPC612	2015_May_07_1334	LL-George	PME	cueing_effect	294	0					False	1	right	212.777608059	-0.280379297189	0.6	0.083	359.60071208	 	go	1	0.1
SPC612	2015_May_07_1334	LL-George	PME	cueing_effect	295	1	sound	left			False	0					0.083	1079.5311816		nogo	1	0.1
SPC612	2015_May_07_1334	LL-George	PME	cueing_effect	296	0					False	1	right	188.91258615	-23.4556386013	0.6	0.083	314.283304382	 	go	1	0.1
SPC612	2015_May_07_1334	LL-George	PME	cueing_effect	297	1	frame	right	200	0	False	0					0.083	1079.54291673		nogo	1	0.1
SPC612	2015_May_07_1334	LL-George	PME	cueing_effect	298	1	sound	left			False	1	left	-181.095979483	-7.60070746864	0.6	0.083	302.657823544	 	go	1	0.1
SPC612	2015_May_07_1334	LL-George	PME	cueing_effect	299	0					False	1	right	215.659898981	13.91452341	0.6	0.083	402.999426005	 	go	1	0.1
SPC612	2015_May_07_1334	LL-George	PME	cueing_effect	300	0					False	1	left	-200.854803229	11.7693204214	0.6	0.083	339.745237492	 	go	1	0.1
SPC612	2015_May_07_1334	LL-George	PME	cueing_effect	301	0					False	0					0.083	1083.89298292		nogo	1	0.1
SPC612	2015_May_07_1334	LL-George	PME	cueing_effect	302	0					False	1	left	-196.70860782	-15.5389035725	0.6	0.083	417.359559098	 	go	1	0.1
SPC612	2015_May_07_1334	LL-George	PME	cueing_effect	303	0					False	1	right	177.880632603	0.704870658384	0.6	0.083	386.516334722	 	go	1	0.1
SPC612	2015_May_07_1334	LL-George	PME	cueing_effect	304	1	frame	right	200	0	False	1	right	222.290308198	-14.8830892692	0.6	0.083	335.986328544	 	go	1	0.1
SPC612	2015_May_07_1334	LL-George	PME	cueing_effect	305	0					False	1	right	185.96836906	-22.4122225511	0.6	0.083	347.691754578	 	go	1	0.1
SPC612	2015_May_07_1334	LL-George	PME	cueing_effect	306	1	sound	right			False	1	right	219.942211866	3.93954481005	0.6	0.083	308.084588265	 	go	1	0.1
SPC612	2015_May_07_1334	LL-George	PME	cueing_effect	307	1	frame	right	200	0	False	1	right	220.442044338	20.0211549788	0.6	0.083	327.406114433	 	go	1	0.1
SPC612	2015_May_07_1334	LL-George	PME	cueing_effect	308	0					False	1	left	-218.469954755	13.8574501962	0.6	0.083	473.403609591	 	go	1	0.1
SPC612	2015_May_07_1334	LL-George	PME	cueing_effect	309	1	frame	right	200	0	False	1	right	216.556661191	0.971650161086	0.6	0.083	378.216663608	 	go	1	0.1
SPC612	2015_May_07_1334	LL-George	PME	cueing_effect	310	1	frame	left	-200	0	False	1	left	-185.767790577	18.6396454126	0.6	0.083	308.81033279	 	go	1	0.1
SPC612	2015_May_07_1334	LL-George	PME	cueing_effect	311	0					False	1	right	186.97754447	14.9944203092	0.6	0.083	315.270155668	 	go	1	0.1
SPC612	2015_May_07_1334	LL-George	PME	cueing_effect	312	1	sound	right			False	0					0.083	1081.35856153		nogo	1	0.1
SPC612	2015_May_07_1334	LL-George	PME	cueing_effect	313	1	frame	right	200	0	False	1	right	222.728266256	-18.9506514184	0.6	0.083	317.304733908	 	go	1	0.1
SPC612	2015_May_07_1334	LL-George	PME	cueing_effect	314	1	sound	left			False	1	left	-185.049965507	-22.5160084289	0.6	0.083	276.238743914	 	go	1	0.1
SPC612	2015_May_07_1334	LL-George	PME	cueing_effect	315	1	sound	left			False	0					0.083	1085.15854366		nogo	1	0.1
SPC612	2015_May_07_1334	LL-George	PME	cueing_effect	316	1	frame	right	200	0	False	1	right	206.498004344	-12.1115587482	0.6	0.083	389.630545164	 	go	1	0.1
SPC612	2015_May_07_1334	LL-George	PME	cueing_effect	317	1	sound	left			False	1	left	-209.525672464	17.9362144582	0.6	0.083	290.329702199	 	go	1	0.1
SPC612	2015_May_07_1334	LL-George	PME	cueing_effect	318	0					False	1	right	199.004351033	7.71900721294	0.6	0.083	345.380667364	 	go	1	0.1
SPC612	2015_May_07_1334	LL-George	PME	cueing_effect	319	1	sound	right			False	1	right	203.850097694	20.9384973425	0.6	0.083	299.347783439	 	go	1	0.1
SPC612	2015_May_07_1334	LL-George	PME	cueing_effect	320	1	frame	left	-200	0	False	1	left	-184.695102772	-18.709389487	0.6	0.083	380.020206328	 	go	1	0.1
SPC612	2015_May_07_1334	LL-George	PME	cueing_effect	321	1	frame	left	-200	0	False	0					0.083	1078.91435362		nogo	1	0.1
SPC612	2015_May_07_1334	LL-George	PME	cueing_effect	322	1	sound	left			False	1	left	-216.21902809	7.55279611073	0.6	0.083	257.226731861	 	go	1	0.1
SPC612	2015_May_07_1334	LL-George	PME	cueing_effect	323	0					False	1	right	206.853533648	17.8371922909	0.6	0.083	359.926728765	 	go	1	0.1
SPC612	2015_May_07_1334	LL-George	PME	cueing_effect	324	0					False	1	right	209.050966576	-5.4324583906	0.6	0.083	329.869391629	 	go	1	0.1
SPC612	2015_May_07_1334	LL-George	PME	cueing_effect	325	1	frame	left	-200	0	False	1	left	-190.722423864	-3.11179569196	0.6	0.083	303.147398867	 	go	1	0.1
SPC612	2015_May_07_1334	LL-George	PME	cueing_effect	326	0					False	1	left	-212.540040741	-21.6503559878	0.6	0.083	443.242856767	 	go	1	0.1
SPC612	2015_May_07_1334	LL-George	PME	cueing_effect	327	1	frame	right	200	0	False	1	right	185.372018349	-19.1430628906	0.6	0.083	380.425435258	 	go	1	0.1
SPC612	2015_May_07_1334	LL-George	PME	cueing_effect	328	1	frame	right	200	0	False	1	right	177.05522031	-10.6951765586	0.6	0.083	270.316170063	 	go	1	0.1
SPC612	2015_May_07_1334	LL-George	PME	cueing_effect	329	1	frame	left	-200	0	False	0					0.083	1085.73869895		nogo	1	0.1
SPC612	2015_May_07_1334	LL-George	PME	cueing_effect	330	0					False	1	right	221.09606986	-20.7846365212	0.6	0.083	299.776482629	 	go	1	0.1
SPC612	2015_May_07_1334	LL-George	PME	cueing_effect	331	1	frame	left	-200	0	False	1	left	-212.99083396	3.6331548204	0.6	0.083	305.020252243	 	go	1	0.1
SPC612	2015_May_07_1334	LL-George	PME	cueing_effect	332	1	sound	left			False	1	left	-203.784693476	12.234649196	0.6	0.083	480.420117732	 	go	1	0.1
SPC612	2015_May_07_1334	LL-George	PME	cueing_effect	333	1	sound	right			False	1	right	177.938923168	-5.19370165827	0.6	0.083	258.922458161	 	go	1	0.1
SPC612	2015_May_07_1334	LL-George	PME	cueing_effect	334	1	sound	left			False	1	left	-216.649081851	7.94181399619	0.6	0.083	419.778462732	 	go	1	0.1
SPC612	2015_May_07_1334	LL-George	PME	cueing_effect	335	1	frame	right	200	0	False	1	right	180.07690787	-10.1413859196	0.6	0.083	319.901864976	 	go	1	0.1
SPC612	2015_May_07_1334	LL-George	PME	cueing_effect	336	1	sound	right			False	0					0.083	1083.22884794		nogo	1	0.1
SPC612	2015_May_07_1334	LL-George	PME	cueing_effect	337	1	frame	right	200	0	False	1	right	208.55896747	5.3233713905	0.6	0.083	336.058206391	 	go	1	0.1
SPC612	2015_May_07_1334	LL-George	PME	cueing_effect	338	0					False	1	left	-211.005072199	10.0440139154	0.6	0.083	355.667609721	 	go	1	0.1
SPC612	2015_May_07_1334	LL-George	PME	cueing_effect	339	1	sound	left			False	1	left	-204.17374662	-12.5015543727	0.6	0.083	323.810396949	 	go	1	0.1
SPC612	2015_May_07_1334	LL-George	PME	cueing_effect	340	1	frame	right	200	0	False	1	right	176.633682523	-8.17906187362	0.6	0.083	358.041406842	 	go	1	0.1
SPC612	2015_May_07_1334	LL-George	PME	cueing_effect	341	1	sound	right			False	1	right	202.428547874	-4.67388520774	0.6	0.083	304.803885752	 	go	1	0.1
SPC612	2015_May_07_1334	LL-George	PME	cueing_effect	342	0					False	1	left	-185.35917961	9.47911735674	0.6	0.083	375.321019907	 	go	1	0.1
SPC612	2015_May_07_1334	LL-George	PME	cueing_effect	343	0					False	1	left	-209.512618918	3.02523132596	0.6	0.083	421.972565353	 	go	1	0.1
SPC612	2015_May_07_1334	LL-George	PME	cueing_effect	344	1	sound	right			False	1	right	176.406740844	-19.3312033961	0.6	0.083	286.588762654	 	go	1	0.1
SPC612	2015_May_07_1334	LL-George	PME	cueing_effect	345	0					False	1	left	-190.715371422	-6.4387205493	0.6	0.083	471.305954969	 	go	1	0.1
SPC612	2015_May_07_1334	LL-George	PME	cueing_effect	346	1	frame	right	200	0	False	1	right	193.142022819	-21.7634067398	0.6	0.083	322.358174482	 	go	1	0.1
SPC612	2015_May_07_1334	LL-George	PME	cueing_effect	347	1	sound	right			False	0					0.083	1085.21281835		nogo	1	0.1
SPC612	2015_May_07_1334	LL-George	PME	cueing_effect	348	1	frame	right	200	0	False	1	right	205.081140951	2.27931183666	0.6	0.083	329.558043974	 	go	1	0.1
SPC612	2015_May_07_1334	LL-George	PME	cueing_effect	349	0					False	1	right	218.162577465	-10.8726154754	0.6	0.083	577.705085278	 	go	1	0.1
SPC612	2015_May_07_1334	LL-George	PME	cueing_effect	350	1	sound	left			False	1	left	-211.506664182	-9.89848450529	0.6	0.083	288.404407213	 	go	1	0.1
SPC612	2015_May_07_1334	LL-George	PME	cueing_effect	351	1	sound	left			False	1	left	-179.427252834	-12.1737825423	0.6	0.083	343.331053387	 	go	1	0.1
SPC612	2015_May_07_1334	LL-George	PME	cueing_effect	352	0					False	1	right	183.644340122	-21.8327356003	0.6	0.083	320.264920592	 	go	1	0.1
SPC612	2015_May_07_1334	LL-George	PME	cueing_effect	353	1	sound	right			False	1	right	214.523473047	-7.21381074491	0.6	0.083	447.398559889	 	go	1	0.1
SPC612	2015_May_07_1334	LL-George	PME	cueing_effect	354	1	frame	left	-200	0	False	1	left	-202.534648696	19.5242623737	0.6	0.083	321.132953512	 	go	1	0.1
SPC612	2015_May_07_1334	LL-George	PME	cueing_effect	355	1	frame	right	200	0	False	1	right	176.734742723	-6.66265037575	0.6	0.083	327.140240464	 	go	1	0.1
SPC612	2015_May_07_1334	LL-George	PME	cueing_effect	356	1	frame	left	-200	0	False	1	left	-180.08114988	22.632454422	0.6	0.083	369.169244543	 	go	1	0.1
SPC612	2015_May_07_1334	LL-George	PME	cueing_effect	357	1	sound	right			False	0					0.083	1078.87914823		nogo	1	0.1
SPC612	2015_May_07_1334	LL-George	PME	cueing_effect	358	1	sound	left			False	1	left	-214.191646578	19.9131550035	0.6	0.083	347.422580235	 	go	1	0.1
SPC612	2015_May_07_1334	LL-George	PME	cueing_effect	359	1	sound	left			False	1	left	-198.252258989	5.52656550187	0.6	0.083	257.054005284	 	go	1	0.1
