subj_id	date	computer	experimenter	part	trial_ix	cue_present	cue_type	cue_loc	cue_pos_x	cue_pos_y	mask_flicker	target_present	target_loc	target_pos_x	target_pos_y	target_opacity	target_duration	rt	key	response	is_correct
SPC615	2015_May_07_1408	LL-George	PME	practice	0	0					False	1	left	-189.481491615	20.3473791031	0.6	0.083	388.790749712	 	go	1	0.1
SPC615	2015_May_07_1408	LL-George	PME	practice	1	0					False	1	left	-185.521060251	-3.03111507159	0.6	0.083	396.541803842	 	go	1	0.1
SPC615	2015_May_07_1408	LL-George	PME	practice	2	0					False	1	left	-208.083955788	-15.704870855	0.6	0.083	410.642296541	 	go	1	0.1
SPC615	2015_May_07_1408	LL-George	PME	practice	3	0					False	1	right	219.91290109	-9.87313805888	0.6	0.083	386.063432088	 	go	1	0.1
SPC615	2015_May_07_1408	LL-George	PME	practice	4	0					False	0					0.083	1080.92949563		nogo	1	0.1
SPC615	2015_May_07_1408	LL-George	PME	practice	5	0					False	0					0.083	1085.77720495		nogo	1	0.1
SPC615	2015_May_07_1408	LL-George	PME	practice	6	0					False	1	left	-186.521615522	19.1292098857	0.6	0.083	450.77314321	 	go	1	0.1
SPC615	2015_May_07_1408	LL-George	PME	practice	7	0					False	1	left	-215.1991029	0.592170537249	0.6	0.083	351.238698233	 	go	1	0.1
SPC615	2015_May_07_1408	LL-George	PME	practice	8	0					False	0					0.083	1078.70642189		nogo	1	0.1
SPC615	2015_May_07_1408	LL-George	PME	practice	9	0					False	0					0.083	43.5450363439	 	go	0	0.1
SPC615	2015_May_07_1408	LL-George	PME	cueing_effect	0	1	frame	left	-200	0	False	0					0.083	94.0548726358	 	go	0	0.1
SPC615	2015_May_07_1408	LL-George	PME	cueing_effect	1	1	sound	left			False	1	left	-200.171619642	-13.2305776332	0.6	0.083	286.757821683	 	go	1	0.1
SPC615	2015_May_07_1408	LL-George	PME	cueing_effect	2	0					False	1	left	-185.377757031	18.0898125274	0.6	0.083	532.514563296	 	go	1	0.1
SPC615	2015_May_07_1408	LL-George	PME	cueing_effect	3	1	sound	left			False	1	left	-214.648667111	-9.73926615945	0.6	0.083	501.129322918	 	go	1	0.1
SPC615	2015_May_07_1408	LL-George	PME	cueing_effect	4	1	sound	right			False	1	right	202.536312879	-13.6590938267	0.6	0.083	677.381819114	 	go	1	0.1
SPC615	2015_May_07_1408	LL-George	PME	cueing_effect	5	1	frame	right	200	0	False	1	right	189.108065792	14.4038246766	0.6	0.083	528.178432724	 	go	1	0.1
SPC615	2015_May_07_1408	LL-George	PME	cueing_effect	6	1	sound	left			False	1	left	-179.782159891	-20.3872387457	0.6	0.083	458.273358876	 	go	1	0.1
SPC615	2015_May_07_1408	LL-George	PME	cueing_effect	7	1	sound	left			False	1	left	-216.232941047	6.44860722396	0.6	0.083	402.75628888	 	go	1	0.1
SPC615	2015_May_07_1408	LL-George	PME	cueing_effect	8	0					False	1	right	200.714248671	-9.86161518197	0.6	0.083	510.388341034	 	go	1	0.1
SPC615	2015_May_07_1408	LL-George	PME	cueing_effect	9	0					False	1	right	190.552971418	13.964157884	0.6	0.083	445.255064871	 	go	1	0.1
SPC615	2015_May_07_1408	LL-George	PME	cueing_effect	10	1	frame	left	-200	0	False	1	left	-219.204530817	0.348936303798	0.6	0.083	436.200311407	 	go	1	0.1
SPC615	2015_May_07_1408	LL-George	PME	cueing_effect	11	1	sound	right			False	0					0.083	1083.74152635		nogo	1	0.1
SPC615	2015_May_07_1408	LL-George	PME	cueing_effect	12	1	frame	right	200	0	False	1	right	212.909495538	-16.3867147839	0.6	0.083	557.147336425	 	go	1	0.1
SPC615	2015_May_07_1408	LL-George	PME	cueing_effect	13	1	frame	left	-200	0	False	1	left	-194.514312927	-5.88219333434	0.6	0.083	549.714964582	 	go	1	0.1
SPC615	2015_May_07_1408	LL-George	PME	cueing_effect	14	1	sound	left			False	1	left	-218.610493702	2.05762505156	0.6	0.083	829.714451218	 	go	1	0.1
SPC615	2015_May_07_1408	LL-George	PME	cueing_effect	15	0					False	1	right	203.627891879	-2.42779491779	0.6	0.083	559.386546025	 	go	1	0.1
SPC615	2015_May_07_1408	LL-George	PME	cueing_effect	16	1	sound	right			False	1	right	196.207728249	5.11179497952	0.6	0.083	349.294700194	 	go	1	0.1
SPC615	2015_May_07_1408	LL-George	PME	cueing_effect	17	0					False	1	left	-184.731210523	-7.59903437447	0.6	0.083	486.440239707	 	go	1	0.1
SPC615	2015_May_07_1408	LL-George	PME	cueing_effect	18	1	frame	left	-200	0	False	1	left	-210.662849318	-7.87938218921	0.6	0.083	351.182956249	 	go	1	0.1
SPC615	2015_May_07_1408	LL-George	PME	cueing_effect	19	1	frame	left	-200	0	False	1	left	-201.171218815	-21.4465202309	0.6	0.083	329.650091473	 	go	1	0.1
SPC615	2015_May_07_1408	LL-George	PME	cueing_effect	20	0					False	0					0.083	1082.53427478		nogo	1	0.1
SPC615	2015_May_07_1408	LL-George	PME	cueing_effect	21	1	sound	right			False	1	right	178.592678385	13.6282719681	0.6	0.083	550.210773945	 	go	1	0.1
SPC615	2015_May_07_1408	LL-George	PME	cueing_effect	22	1	sound	left			False	0					0.083	1085.67672293		nogo	1	0.1
SPC615	2015_May_07_1408	LL-George	PME	cueing_effect	23	1	frame	left	-200	0	False	1	left	-184.089772525	-4.57391538879	0.6	0.083	408.337077126	 	go	1	0.1
SPC615	2015_May_07_1408	LL-George	PME	cueing_effect	24	1	sound	right			False	1	right	199.5383363	8.50970267669	0.6	0.083	306.862667669	 	go	1	0.1
SPC615	2015_May_07_1408	LL-George	PME	cueing_effect	25	1	frame	left	-200	0	False	1	left	-204.554808707	-3.60893235437	0.6	0.083	292.905563256	 	go	1	0.1
SPC615	2015_May_07_1408	LL-George	PME	cueing_effect	26	1	frame	left	-200	0	False	1	left	-186.676575353	15.6607996453	0.6	0.083	509.306508815	 	go	1	0.1
SPC615	2015_May_07_1408	LL-George	PME	cueing_effect	27	0					False	1	left	-212.714525894	1.56214306192	0.6	0.083	498.537325999	 	go	1	0.1
SPC615	2015_May_07_1408	LL-George	PME	cueing_effect	28	0					False	1	left	-221.302528049	15.5395209098	0.6	0.083	403.258698992	 	go	1	0.1
SPC615	2015_May_07_1408	LL-George	PME	cueing_effect	29	1	frame	left	-200	0	False	1	left	-189.730890703	-11.4040136323	0.6	0.083	402.224907419	 	go	1	0.1
SPC615	2015_May_07_1408	LL-George	PME	cueing_effect	30	1	sound	right			False	1	right	182.46199178	6.12871924006	0.6	0.083	318.509051576	 	go	1	0.1
SPC615	2015_May_07_1408	LL-George	PME	cueing_effect	31	1	sound	right			False	1	right	221.346848287	-12.3614115932	0.6	0.083	355.14576314	 	go	1	0.1
SPC615	2015_May_07_1408	LL-George	PME	cueing_effect	32	1	frame	left	-200	0	False	1	left	-210.669643945	-6.10396681361	0.6	0.083	286.38229752	 	go	1	0.1
SPC615	2015_May_07_1408	LL-George	PME	cueing_effect	33	1	sound	right			False	1	right	195.160609605	1.32423709429	0.6	0.083	285.230787937	 	go	1	0.1
SPC615	2015_May_07_1408	LL-George	PME	cueing_effect	34	0					False	0					0.083	1078.70128774		nogo	1	0.1
SPC615	2015_May_07_1408	LL-George	PME	cueing_effect	35	0					False	1	right	191.280672689	-16.6587320529	0.6	0.083	478.439814411	 	go	1	0.1
SPC615	2015_May_07_1408	LL-George	PME	cueing_effect	36	0					False	1	left	-196.047247219	0.728489830894	0.6	0.083	395.54395061	 	go	1	0.1
SPC615	2015_May_07_1408	LL-George	PME	cueing_effect	37	1	frame	right	200	0	False	1	right	192.582667546	9.76455250094	0.6	0.083	329.874892486	 	go	1	0.1
SPC615	2015_May_07_1408	LL-George	PME	cueing_effect	38	0					False	1	right	183.035590967	6.02620432302	0.6	0.083	325.675549218	 	go	1	0.1
SPC615	2015_May_07_1408	LL-George	PME	cueing_effect	39	0					False	1	left	-188.228231604	17.0463008061	0.6	0.083	425.697369268	 	go	1	0.1
SPC615	2015_May_07_1408	LL-George	PME	cueing_effect	40	1	sound	right			False	1	right	209.606902103	-16.5564595308	0.6	0.083	412.314552814	 	go	1	0.1
SPC615	2015_May_07_1408	LL-George	PME	cueing_effect	41	1	frame	right	200	0	False	1	right	220.63592419	-12.4140359002	0.6	0.083	323.596230708	 	go	1	0.1
SPC615	2015_May_07_1408	LL-George	PME	cueing_effect	42	0					False	1	left	-177.447068676	16.0500852609	0.6	0.083	345.795431174	 	go	1	0.1
SPC615	2015_May_07_1408	LL-George	PME	cueing_effect	43	1	frame	left	-200	0	False	1	left	-193.9510271	18.7847533125	0.6	0.083	311.954614241	 	go	1	0.1
SPC615	2015_May_07_1408	LL-George	PME	cueing_effect	44	0					False	1	right	211.362635048	8.62028737189	0.6	0.083	310.219281819	 	go	1	0.1
SPC615	2015_May_07_1408	LL-George	PME	cueing_effect	45	1	sound	left			False	1	left	-215.454173542	5.22166433263	0.6	0.083	373.20356234	 	go	1	0.1
SPC615	2015_May_07_1408	LL-George	PME	cueing_effect	46	1	sound	left			False	1	left	-188.764858213	-17.4454968571	0.6	0.083	355.45197688	 	go	1	0.1
SPC615	2015_May_07_1408	LL-George	PME	cueing_effect	47	0					False	1	left	-191.505340954	-1.87213750558	0.6	0.083	378.000663826	 	go	1	0.1
SPC615	2015_May_07_1408	LL-George	PME	cueing_effect	48	0					False	1	right	213.214239701	-19.2702599208	0.6	0.083	343.191332184	 	go	1	0.1
SPC615	2015_May_07_1408	LL-George	PME	cueing_effect	49	0					False	1	right	183.107661711	16.285024175	0.6	0.083	306.183863897	 	go	1	0.1
SPC615	2015_May_07_1408	LL-George	PME	cueing_effect	50	1	sound	right			False	1	right	190.409577755	8.91027923735	0.6	0.083	303.002909757	 	go	1	0.1
SPC615	2015_May_07_1408	LL-George	PME	cueing_effect	51	1	frame	left	-200	0	False	1	left	-218.342132886	5.36775951	0.6	0.083	186.811179854	 	go	1	0.1
SPC615	2015_May_07_1408	LL-George	PME	cueing_effect	52	0					False	1	right	200.716026065	-17.3628970083	0.6	0.083	320.16443857	 	go	1	0.1
SPC615	2015_May_07_1408	LL-George	PME	cueing_effect	53	0					False	0					0.083	1085.89565638		nogo	1	0.1
SPC615	2015_May_07_1408	LL-George	PME	cueing_effect	54	1	sound	right			False	1	right	190.208350683	11.1077455512	0.6	0.083	411.226486089	 	go	1	0.1
SPC615	2015_May_07_1408	LL-George	PME	cueing_effect	55	1	sound	right			False	1	right	221.21950084	12.7611236118	0.6	0.083	728.520951699	 	go	1	0.1
SPC615	2015_May_07_1408	LL-George	PME	cueing_effect	56	1	frame	left	-200	0	False	1	left	-197.190221157	-17.9035998185	0.6	0.083	1085.65288596		nogo	0	0.1
SPC615	2015_May_07_1408	LL-George	PME	cueing_effect	57	1	sound	right			False	0					0.083	1080.09116747		nogo	1	0.1
SPC615	2015_May_07_1408	LL-George	PME	cueing_effect	58	0					False	1	left	-181.513149975	15.4729848591	0.6	0.083	1082.22806128		nogo	0	0.1
SPC615	2015_May_07_1408	LL-George	PME	cueing_effect	59	0					False	1	right	218.923420066	-6.0430299792	0.6	0.083	335.65811161	 	go	1	0.1
SPC615	2015_May_07_1408	LL-George	PME	cueing_effect	60	1	sound	right			False	1	right	181.099525369	14.3745335617	0.6	0.083	446.476985235	 	go	1	0.1
SPC615	2015_May_07_1408	LL-George	PME	cueing_effect	61	0					False	1	left	-216.209262836	3.33160622327	0.6	0.083	737.502360716	 	go	1	0.1
SPC615	2015_May_07_1408	LL-George	PME	cueing_effect	62	1	sound	right			False	1	right	194.223139597	-21.2283753136	0.6	0.083	444.244010141	 	go	1	0.1
SPC615	2015_May_07_1408	LL-George	PME	cueing_effect	63	1	frame	left	-200	0	False	1	left	-208.262209053	-6.59011613901	0.6	0.083	402.409002418	 	go	1	0.1
SPC615	2015_May_07_1408	LL-George	PME	cueing_effect	64	0					False	1	right	183.106470576	19.9741924333	0.6	0.083	411.34383739	 	go	1	0.1
SPC615	2015_May_07_1408	LL-George	PME	cueing_effect	65	1	frame	left	-200	0	False	0					0.083	1079.51101172		nogo	1	0.1
SPC615	2015_May_07_1408	LL-George	PME	cueing_effect	66	0					False	0					0.083	1085.84798244		nogo	1	0.1
SPC615	2015_May_07_1408	LL-George	PME	cueing_effect	67	1	sound	left			False	1	left	-187.347930268	-23.4698593407	0.6	0.083	361.574047711	 	go	1	0.1
SPC615	2015_May_07_1408	LL-George	PME	cueing_effect	68	1	frame	right	200	0	False	1	right	209.915189756	-19.5396592321	0.6	0.083	569.556870498	 	go	1	0.1
SPC615	2015_May_07_1408	LL-George	PME	cueing_effect	69	1	frame	left	-200	0	False	1	left	-197.173134943	14.3243854716	0.6	0.083	404.657746898	 	go	1	0.1
SPC615	2015_May_07_1408	LL-George	PME	cueing_effect	70	0					False	1	left	-182.900924045	-17.2793638016	0.6	0.083	477.700501215	 	go	1	0.1
SPC615	2015_May_07_1408	LL-George	PME	cueing_effect	71	1	sound	right			False	1	right	182.472101474	-5.23974626827	0.6	0.083	269.73858173	 	go	1	0.1
SPC615	2015_May_07_1408	LL-George	PME	cueing_effect	72	1	sound	right			False	1	right	183.996621671	21.6486644905	0.6	0.083	331.491406774	 	go	1	0.1
SPC615	2015_May_07_1408	LL-George	PME	cueing_effect	73	1	frame	right	200	0	False	1	right	183.503709164	-3.72079588992	0.6	0.083	323.22437386	 	go	1	0.1
SPC615	2015_May_07_1408	LL-George	PME	cueing_effect	74	1	sound	left			False	1	left	-181.725135135	6.37642145665	0.6	0.083	505.946960766	 	go	1	0.1
SPC615	2015_May_07_1408	LL-George	PME	cueing_effect	75	1	sound	right			False	1	right	212.322754835	-23.1571752031	0.6	0.083	332.955731079	 	go	1	0.1
SPC615	2015_May_07_1408	LL-George	PME	cueing_effect	76	0					False	0					0.083	1079.48094048		nogo	1	0.1
SPC615	2015_May_07_1408	LL-George	PME	cueing_effect	77	1	frame	right	200	0	False	1	right	215.538034157	11.1015630534	0.6	0.083	598.563913489	 	go	1	0.1
SPC615	2015_May_07_1408	LL-George	PME	cueing_effect	78	1	sound	right			False	1	right	188.575298793	-4.20984852369	0.6	0.083	542.020753026	 	go	1	0.1
SPC615	2015_May_07_1408	LL-George	PME	cueing_effect	79	1	sound	right			False	1	right	203.852543252	-0.040204193045	0.6	0.083	412.291449495	 	go	1	0.1
SPC615	2015_May_07_1408	LL-George	PME	cueing_effect	80	0					False	1	left	-181.568354471	3.09014356852	0.6	0.083	484.407495009	 	go	1	0.1
SPC615	2015_May_07_1408	LL-George	PME	cueing_effect	81	0					False	1	right	200.540146377	-22.4245396598	0.6	0.083	577.648609877	 	go	1	0.1
SPC615	2015_May_07_1408	LL-George	PME	cueing_effect	82	1	sound	right			False	1	right	180.837833864	-17.5675445719	0.6	0.083	338.053178508	 	go	1	0.1
SPC615	2015_May_07_1408	LL-George	PME	cueing_effect	83	0					False	1	right	197.495605767	-8.81345671569	0.6	0.083	436.219380936	 	go	1	0.1
SPC615	2015_May_07_1408	LL-George	PME	cueing_effect	84	0					False	1	left	-221.202072777	-20.0056691423	0.6	0.083	425.442130072	 	go	1	0.1
SPC615	2015_May_07_1408	LL-George	PME	cueing_effect	85	0					False	1	right	192.916305196	3.78094343371	0.6	0.083	349.575976608	 	go	1	0.1
SPC615	2015_May_07_1408	LL-George	PME	cueing_effect	86	1	sound	right			False	1	right	192.187774314	11.4789224337	0.6	0.083	435.526274843	 	go	1	0.1
SPC615	2015_May_07_1408	LL-George	PME	cueing_effect	87	1	sound	right			False	1	right	193.700121664	7.11653786394	0.6	0.083	360.883141868	 	go	1	0.1
SPC615	2015_May_07_1408	LL-George	PME	cueing_effect	88	0					False	1	right	187.888949815	6.90402651167	0.6	0.083	348.234504694	 	go	1	0.1
SPC615	2015_May_07_1408	LL-George	PME	cueing_effect	89	0					False	1	right	198.471987271	1.71183520277	0.6	0.083	410.174358403	 	go	1	0.1
SPC615	2015_May_07_1408	LL-George	PME	cueing_effect	90	0					False	0					0.083	1079.73764651		nogo	1	0.1
SPC615	2015_May_07_1408	LL-George	PME	cueing_effect	91	1	sound	right			False	0					0.083	1085.49262793		nogo	1	0.1
SPC615	2015_May_07_1408	LL-George	PME	cueing_effect	92	1	frame	left	-200	0	False	1	left	-191.341019512	-4.03569034257	0.6	0.083	374.865550082	 	go	1	0.1
SPC615	2015_May_07_1408	LL-George	PME	cueing_effect	93	0					False	1	right	208.410485544	-20.5309712545	0.6	0.083	379.177844152	 	go	1	0.1
SPC615	2015_May_07_1408	LL-George	PME	cueing_effect	94	1	frame	right	200	0	False	1	right	218.306542418	-1.80702938515	0.6	0.083	443.997572176	 	go	1	0.1
SPC615	2015_May_07_1408	LL-George	PME	cueing_effect	95	1	sound	right			False	1	right	216.2812876	-4.8428902434	0.6	0.083	520.266020903	 	go	1	0.1
SPC615	2015_May_07_1408	LL-George	PME	cueing_effect	96	1	frame	right	200	0	False	1	right	203.33127658	-14.3133015086	0.6	0.083	567.42254342	 	go	1	0.1
SPC615	2015_May_07_1408	LL-George	PME	cueing_effect	97	0					False	1	right	209.266893438	15.8322799868	0.6	0.083	524.19398888	 	go	1	0.1
SPC615	2015_May_07_1408	LL-George	PME	cueing_effect	98	1	sound	right			False	1	right	215.131507725	10.2869290011	0.6	0.083	592.063751072	 	go	1	0.1
SPC615	2015_May_07_1408	LL-George	PME	cueing_effect	99	0					False	1	right	188.987598152	-1.00285379362	0.6	0.083	389.924656833	 	go	1	0.1
SPC615	2015_May_07_1408	LL-George	PME	cueing_effect	100	1	frame	right	200	0	False	0					0.083	1085.60374496		nogo	1	0.1
SPC615	2015_May_07_1408	LL-George	PME	cueing_effect	101	1	sound	right			False	1	right	201.200717897	-5.67099014568	0.6	0.083	338.815228548	 	go	1	0.1
SPC615	2015_May_07_1408	LL-George	PME	cueing_effect	102	1	frame	left	-200	0	False	1	left	-178.277738099	-17.4213726949	0.6	0.083	395.928643178	 	go	1	0.1
SPC615	2015_May_07_1408	LL-George	PME	cueing_effect	103	1	frame	right	200	0	False	1	right	209.415010981	9.22759793806	0.6	0.083	374.785604654	 	go	1	0.1
SPC615	2015_May_07_1408	LL-George	PME	cueing_effect	104	0					False	1	right	212.749002775	16.1795363623	0.6	0.083	336.907903198	 	go	1	0.1
SPC615	2015_May_07_1408	LL-George	PME	cueing_effect	105	0					False	1	left	-209.437475376	-4.8287203026	0.6	0.083	402.675243095	 	go	1	0.1
SPC615	2015_May_07_1408	LL-George	PME	cueing_effect	106	0					False	1	left	-194.548808685	21.9352440223	0.6	0.083	410.243668826	 	go	1	0.1
SPC615	2015_May_07_1408	LL-George	PME	cueing_effect	107	1	sound	right			False	1	right	178.742645961	15.9137729372	0.6	0.083	276.605833555	 	go	1	0.1
SPC615	2015_May_07_1408	LL-George	PME	cueing_effect	108	1	frame	left	-200	0	False	1	left	-179.958110676	1.69226101266	0.6	0.083	272.064704448	 	go	1	0.1
SPC615	2015_May_07_1408	LL-George	PME	cueing_effect	109	1	sound	right			False	1	right	218.699343655	11.7682360336	0.6	0.083	343.623331748	 	go	1	0.1
SPC615	2015_May_07_1408	LL-George	PME	cueing_effect	110	1	frame	left	-200	0	False	0					0.083	1079.36285576		nogo	1	0.1
SPC615	2015_May_07_1408	LL-George	PME	cueing_effect	111	0					False	0					0.083	1080.13040666		nogo	1	0.1
SPC615	2015_May_07_1408	LL-George	PME	cueing_effect	112	1	sound	right			False	1	right	196.307771224	-13.2608070009	0.6	0.083	281.836768147	 	go	1	0.1
SPC615	2015_May_07_1408	LL-George	PME	cueing_effect	113	1	frame	left	-200	0	False	1	left	-204.900289759	-21.788584689	0.6	0.083	461.658210494	 	go	1	0.1
SPC615	2015_May_07_1408	LL-George	PME	cueing_effect	114	1	frame	right	200	0	False	1	right	215.370838994	4.74053037583	0.6	0.083	402.794794645	 	go	1	0.1
SPC615	2015_May_07_1408	LL-George	PME	cueing_effect	115	0					False	1	left	-178.706107117	-5.20501759172	0.6	0.083	507.903060643	 	go	1	0.1
SPC615	2015_May_07_1408	LL-George	PME	cueing_effect	116	1	frame	right	200	0	False	1	right	196.988212573	19.4297578657	0.6	0.083	343.875637045	 	go	1	0.1
SPC615	2015_May_07_1408	LL-George	PME	cueing_effect	117	0					False	1	right	176.885222236	-10.8501685785	0.6	0.083	331.099746749	 	go	1	0.1
SPC615	2015_May_07_1408	LL-George	PME	cueing_effect	118	1	sound	left			False	1	left	-211.668348558	5.57315519692	0.6	0.083	377.725254744	 	go	1	0.1
SPC615	2015_May_07_1408	LL-George	PME	cueing_effect	119	1	sound	left			False	1	left	-207.832032618	-22.8435566507	0.6	0.083	339.920164552	 	go	1	0.1
SPC615	2015_May_07_1408	LL-George	PME	cueing_effect	120	0					False	1	left	-184.555889342	-0.114455502744	0.6	0.083	759.245724417	 	go	1	0.1
SPC615	2015_May_07_1408	LL-George	PME	cueing_effect	121	1	sound	left			False	1	left	-192.220535417	3.42624164944	0.6	0.083	424.076454481	 	go	1	0.1
SPC615	2015_May_07_1408	LL-George	PME	cueing_effect	122	0					False	0					0.083	1080.49052837		nogo	1	0.1
SPC615	2015_May_07_1408	LL-George	PME	cueing_effect	123	1	sound	left			False	1	left	-193.303128183	15.9465166633	0.6	0.083	383.181357291	 	go	1	0.1
SPC615	2015_May_07_1408	LL-George	PME	cueing_effect	124	1	frame	left	-200	0	False	1	left	-188.162649026	7.22099628207	0.6	0.083	445.545142516	 	go	1	0.1
SPC615	2015_May_07_1408	LL-George	PME	cueing_effect	125	0					False	1	left	-184.065403922	-18.1149115392	0.6	0.083	388.549446128	 	go	1	0.1
SPC615	2015_May_07_1408	LL-George	PME	cueing_effect	126	1	frame	left	-200	0	False	1	left	-208.561471017	17.9663064387	0.6	0.083	327.392545529	 	go	1	0.1
SPC615	2015_May_07_1408	LL-George	PME	cueing_effect	127	1	sound	left			False	1	left	-180.463414408	19.8844628251	0.6	0.083	358.618628234	 	go	1	0.1
SPC615	2015_May_07_1408	LL-George	PME	cueing_effect	128	1	frame	left	-200	0	False	1	left	-198.618009886	-15.0732616165	0.6	0.083	316.042473773	 	go	1	0.1
SPC615	2015_May_07_1408	LL-George	PME	cueing_effect	129	0					False	0					0.083	1081.20233752		nogo	1	0.1
SPC615	2015_May_07_1408	LL-George	PME	cueing_effect	130	1	sound	left			False	1	left	-213.123371896	-5.38206103692	0.6	0.083	402.54468983	 	go	1	0.1
SPC615	2015_May_07_1408	LL-George	PME	cueing_effect	131	0					False	1	right	216.656594438	-4.89073272231	0.6	0.083	369.118636707	 	go	1	0.1
SPC615	2015_May_07_1408	LL-George	PME	cueing_effect	132	1	sound	left			False	1	left	-178.00872645	17.866009344	0.6	0.083	476.911680307	 	go	1	0.1
SPC615	2015_May_07_1408	LL-George	PME	cueing_effect	133	0					False	1	left	-201.595742306	-23.5265491726	0.6	0.083	375.415267656	 	go	1	0.1
SPC615	2015_May_07_1408	LL-George	PME	cueing_effect	134	1	frame	right	200	0	False	1	right	183.943726817	-10.8619834815	0.6	0.083	339.504667558	 	go	1	0.1
SPC615	2015_May_07_1408	LL-George	PME	cueing_effect	135	1	frame	right	200	0	False	1	right	212.866970275	9.46147136054	0.6	0.083	324.471964967	 	go	1	0.1
SPC615	2015_May_07_1408	LL-George	PME	cueing_effect	136	1	frame	right	200	0	False	0					0.083	1083.16577156		nogo	1	0.1
SPC615	2015_May_07_1408	LL-George	PME	cueing_effect	137	1	frame	right	200	0	False	1	right	204.193786899	9.49353218836	0.6	0.083	452.475837432	 	go	1	0.1
SPC615	2015_May_07_1408	LL-George	PME	cueing_effect	138	1	frame	left	-200	0	False	0					0.083	1085.73869895		nogo	1	0.1
SPC615	2015_May_07_1408	LL-George	PME	cueing_effect	139	1	frame	left	-200	0	False	0					0.083	1082.55811199		nogo	1	0.1
SPC615	2015_May_07_1408	LL-George	PME	cueing_effect	140	0					False	1	left	-192.612357484	-12.7131667295	0.6	0.083	405.953011708	 	go	1	0.1
SPC615	2015_May_07_1408	LL-George	PME	cueing_effect	141	1	frame	left	-200	0	False	1	left	-204.492223121	-15.835823215	0.6	0.083	505.155572901	 	go	1	0.1
SPC615	2015_May_07_1408	LL-George	PME	cueing_effect	142	1	sound	left			False	1	left	-216.345483263	-22.7906806509	0.6	0.083	319.628656376	 	go	1	0.1
SPC615	2015_May_07_1408	LL-George	PME	cueing_effect	143	1	frame	left	-200	0	False	1	left	-198.43741271	-14.9170892476	0.6	0.083	305.503226118	 	go	1	0.1
SPC615	2015_May_07_1408	LL-George	PME	cueing_effect	144	0					False	1	left	-177.432562895	12.8923201414	0.6	0.083	373.64546326	 	go	1	0.1
SPC615	2015_May_07_1408	LL-George	PME	cueing_effect	145	1	sound	left			False	1	left	-217.371855843	-6.09962078574	0.6	0.083	292.474297341	 	go	1	0.1
SPC615	2015_May_07_1408	LL-George	PME	cueing_effect	146	0					False	0					0.083	1086.12999227		nogo	1	0.1
SPC615	2015_May_07_1408	LL-George	PME	cueing_effect	147	1	sound	left			False	1	left	-217.836257148	-0.822776608882	0.6	0.083	304.128382355	 	go	1	0.1
SPC615	2015_May_07_1408	LL-George	PME	cueing_effect	148	0					False	1	left	-200.289150072	9.79611955808	0.6	0.083	405.29914503	 	go	1	0.1
SPC615	2015_May_07_1408	LL-George	PME	cueing_effect	149	0					False	1	left	-203.995241493	15.6963211514	0.6	0.083	478.061356349	 	go	1	0.1
SPC615	2015_May_07_1408	LL-George	PME	cueing_effect	150	0					False	1	left	-214.690926471	-17.3845237047	0.6	0.083	335.943788756	 	go	1	0.1
SPC615	2015_May_07_1408	LL-George	PME	cueing_effect	151	1	sound	left			False	0					0.083	1079.20296444		nogo	1	0.1
SPC615	2015_May_07_1408	LL-George	PME	cueing_effect	152	1	frame	right	200	0	False	1	right	193.171988768	-1.94892015194	0.6	0.083	347.688454203	 	go	1	0.1
SPC615	2015_May_07_1408	LL-George	PME	cueing_effect	153	1	frame	right	200	0	False	1	right	200.734721372	-10.8897196494	0.6	0.083	261.351630557	 	go	1	0.1
SPC615	2015_May_07_1408	LL-George	PME	cueing_effect	154	1	sound	left			False	1	left	-203.685449136	11.812591421	0.6	0.083	393.782947911	 	go	1	0.1
SPC615	2015_May_07_1408	LL-George	PME	cueing_effect	155	0					False	1	left	-191.176729862	22.520445773	0.6	0.083	402.586862911	 	go	1	0.1
SPC615	2015_May_07_1408	LL-George	PME	cueing_effect	156	0					False	1	left	-208.215395905	18.9658146045	0.6	0.083	343.692275696	 	go	1	0.1
SPC615	2015_May_07_1408	LL-George	PME	cueing_effect	157	0					False	1	right	211.310628271	12.034509384	0.6	0.083	286.505883094	 	go	1	0.1
SPC615	2015_May_07_1408	LL-George	PME	cueing_effect	158	1	sound	right			False	1	right	204.710382148	-20.2159204212	0.6	0.083	361.034598434	 	go	1	0.1
SPC615	2015_May_07_1408	LL-George	PME	cueing_effect	159	1	frame	left	-200	0	False	1	left	-221.330258057	9.0875954236	0.6	0.083	361.904465128	 	go	1	0.1
SPC615	2015_May_07_1408	LL-George	PME	cueing_effect	160	0					False	1	left	-178.599981617	-8.58241002727	0.6	0.083	428.310636198	 	go	1	0.1
SPC615	2015_May_07_1408	LL-George	PME	cueing_effect	161	1	frame	right	200	0	False	1	right	197.982085271	11.3519510008	0.6	0.083	293.865643907	 	go	1	0.1
SPC615	2015_May_07_1408	LL-George	PME	cueing_effect	162	1	sound	right			False	1	right	192.162275405	13.627295443	0.6	0.083	324.246797012	 	go	1	0.1
SPC615	2015_May_07_1408	LL-George	PME	cueing_effect	163	1	sound	right			False	1	right	216.564502316	18.8683525631	0.6	0.083	336.082410067	 	go	1	0.1
SPC615	2015_May_07_1408	LL-George	PME	cueing_effect	164	0					False	1	right	209.198006335	-20.2358775385	0.6	0.083	339.893760392	 	go	1	0.1
SPC615	2015_May_07_1408	LL-George	PME	cueing_effect	165	1	frame	right	200	0	False	1	right	207.511037653	5.02639454227	0.6	0.083	299.543246627	 	go	1	0.1
SPC615	2015_May_07_1408	LL-George	PME	cueing_effect	166	0					False	1	left	-192.813092666	-13.4001876806	0.6	0.083	367.490753997	 	go	1	0.1
SPC615	2015_May_07_1408	LL-George	PME	cueing_effect	167	1	sound	left			False	1	left	-177.725009807	-11.5256594627	0.6	0.083	306.860100711	 	go	1	0.1
SPC615	2015_May_07_1408	LL-George	PME	cueing_effect	168	0					False	1	left	-209.779286409	7.7820053383	0.6	0.083	357.358568814	 	go	1	0.1
SPC615	2015_May_07_1408	LL-George	PME	cueing_effect	169	1	frame	right	200	0	False	1	right	209.639396732	8.79989923635	0.6	0.083	317.663388792	 	go	1	0.1
SPC615	2015_May_07_1408	LL-George	PME	cueing_effect	170	0					False	1	right	198.948703098	20.4711808943	0.6	0.083	335.527191637	 	go	1	0.1
SPC615	2015_May_07_1408	LL-George	PME	cueing_effect	171	1	sound	right			False	1	right	219.002799393	5.1250560051	0.6	0.083	335.530125303	 	go	1	0.1
SPC615	2015_May_07_1408	LL-George	PME	cueing_effect	172	0					False	1	left	-180.076720292	2.14797404584	0.6	0.083	324.284202885	 	go	1	0.1
SPC615	2015_May_07_1408	LL-George	PME	cueing_effect	173	1	frame	left	-200	0	False	1	left	-177.576493848	20.3405944775	0.6	0.083	324.372216361	 	go	1	0.1
SPC615	2015_May_07_1408	LL-George	PME	cueing_effect	174	1	sound	right			False	1	right	210.098016066	20.2428764701	0.6	0.083	273.177708499	 	go	1	0.1
SPC615	2015_May_07_1408	LL-George	PME	cueing_effect	175	1	sound	right			False	1	right	188.551826417	-3.24506330602	0.6	0.083	290.473457426	 	go	1	0.1
SPC615	2015_May_07_1408	LL-George	PME	cueing_effect	176	0					False	1	right	176.682898529	2.72522934003	0.6	0.083	393.797249999	 	go	1	0.1
SPC615	2015_May_07_1408	LL-George	PME	cueing_effect	177	1	sound	right			False	1	right	179.845950822	-16.3783021024	0.6	0.083	78.6539805122	 	go	1	0.1
SPC615	2015_May_07_1408	LL-George	PME	cueing_effect	178	0					False	1	right	210.350607022	-10.0580155138	0.6	0.083	320.337898331	 	go	1	0.1
SPC615	2015_May_07_1408	LL-George	PME	cueing_effect	179	1	frame	right	200	0	False	1	right	202.702797265	8.97897123981	0.6	0.083	343.380927807	 	go	1	0.1
SPC615	2015_May_07_1408	LL-George	PME	cueing_effect	180	1	frame	left	-200	0	False	0					0.083	1086.03721135		nogo	1	0.1
SPC615	2015_May_07_1408	LL-George	PME	cueing_effect	181	0					False	1	left	-189.184489059	10.8831859612	0.6	0.083	566.597050522	 	go	1	0.1
SPC615	2015_May_07_1408	LL-George	PME	cueing_effect	182	1	frame	right	200	0	False	1	right	184.855146021	12.5342002364	0.6	0.083	341.613690602	 	go	1	0.1
SPC615	2015_May_07_1408	LL-George	PME	cueing_effect	183	0					False	1	right	199.562918627	0.98474141545	0.6	0.083	390.911507886	 	go	1	0.1
SPC615	2015_May_07_1408	LL-George	PME	cueing_effect	184	1	frame	left	-200	0	False	1	left	-222.169804313	16.986855013	0.6	0.083	479.030237999	 	go	1	0.1
SPC615	2015_May_07_1408	LL-George	PME	cueing_effect	185	0					False	1	left	-205.411188101	7.08181866076	0.6	0.083	447.250037221	 	go	1	0.1
SPC615	2015_May_07_1408	LL-George	PME	cueing_effect	186	1	frame	left	-200	0	False	1	left	-180.322949741	-18.7906738521	0.6	0.083	527.27336064	 	go	1	0.1
SPC615	2015_May_07_1408	LL-George	PME	cueing_effect	187	0					False	1	left	-222.943880455	18.7840262339	0.6	0.083	736.036936287	 	go	1	0.1
SPC615	2015_May_07_1408	LL-George	PME	cueing_effect	188	0					False	1	right	210.806564726	-7.19178679564	0.6	0.083	597.347860457	 	go	1	0.1
SPC615	2015_May_07_1408	LL-George	PME	cueing_effect	189	1	frame	left	-200	0	False	1	left	-196.061191402	18.9813988748	0.6	0.083	502.903161338	 	go	1	0.1
SPC615	2015_May_07_1408	LL-George	PME	cueing_effect	190	0					False	1	left	-220.492517343	-17.6154974312	0.6	0.083	547.148638172	 	go	1	0.1
SPC615	2015_May_07_1408	LL-George	PME	cueing_effect	191	1	sound	left			False	1	left	-216.560607324	-13.9362602809	0.6	0.083	480.024790391	 	go	1	0.1
SPC615	2015_May_07_1408	LL-George	PME	cueing_effect	192	0					False	1	right	216.124606172	11.2703830169	0.6	0.083	611.05742678	 	go	1	0.1
SPC615	2015_May_07_1408	LL-George	PME	cueing_effect	193	0					False	1	right	195.142419044	5.43056820542	0.6	0.083	555.312255397	 	go	1	0.1
SPC615	2015_May_07_1408	LL-George	PME	cueing_effect	194	1	sound	left			False	1	left	-177.134417555	-20.1038651378	0.6	0.083	480.8715533	 	go	1	0.1
SPC615	2015_May_07_1408	LL-George	PME	cueing_effect	195	0					False	1	left	-184.950806384	-21.0590377603	0.6	0.083	458.107600221	 	go	1	0.1
SPC615	2015_May_07_1408	LL-George	PME	cueing_effect	196	1	sound	right			False	1	right	178.587800877	6.02893386251	0.6	0.083	412.677975139	 	go	1	0.1
SPC615	2015_May_07_1408	LL-George	PME	cueing_effect	197	1	frame	left	-200	0	False	1	left	-187.494478551	14.1384770688	0.6	0.083	482.247497654	 	go	1	0.1
SPC615	2015_May_07_1408	LL-George	PME	cueing_effect	198	1	frame	left	-200	0	False	1	left	-205.741618897	-12.9699539127	0.6	0.083	518.879808253	 	go	1	0.1
SPC615	2015_May_07_1408	LL-George	PME	cueing_effect	199	1	frame	right	200	0	False	1	right	179.511570913	-17.792099582	0.6	0.083	555.436574388	 	go	1	0.1
SPC615	2015_May_07_1408	LL-George	PME	cueing_effect	200	1	sound	left			False	0					0.083	1085.55717114		nogo	1	0.1
SPC615	2015_May_07_1408	LL-George	PME	cueing_effect	201	1	frame	left	-200	0	False	1	left	-216.850836516	20.5440504776	0.6	0.083	489.131252049	 	go	1	0.1
SPC615	2015_May_07_1408	LL-George	PME	cueing_effect	202	1	frame	right	200	0	False	1	right	188.597546767	4.11842857699	0.6	0.083	1079.27117497		nogo	0	0.1
SPC615	2015_May_07_1408	LL-George	PME	cueing_effect	203	1	frame	right	200	0	False	1	right	195.071862818	10.6167271454	0.6	0.083	319.911032915	 	go	1	0.1
SPC615	2015_May_07_1408	LL-George	PME	cueing_effect	204	1	frame	right	200	0	False	1	right	201.040979176	-11.0476080441	0.6	0.083	332.576172892	 	go	1	0.1
SPC615	2015_May_07_1408	LL-George	PME	cueing_effect	205	0					False	1	right	199.752800702	-5.31742686742	0.6	0.083	549.4989648	 	go	1	0.1
SPC615	2015_May_07_1408	LL-George	PME	cueing_effect	206	0					False	1	right	211.861661807	-20.4040125593	0.6	0.083	288.510390092	 	go	1	0.1
SPC615	2015_May_07_1408	LL-George	PME	cueing_effect	207	1	sound	right			False	1	right	220.297101332	21.9641984871	0.6	0.083	486.295384355	 	go	1	0.1
SPC615	2015_May_07_1408	LL-George	PME	cueing_effect	208	0					False	1	left	-211.098670108	21.1894385132	0.6	0.083	1085.54506931		nogo	0	0.1
SPC615	2015_May_07_1408	LL-George	PME	cueing_effect	209	1	frame	left	-200	0	False	1	left	-220.627809218	-12.3056098833	0.6	0.083	308.59873374	 	go	1	0.1
SPC615	2015_May_07_1408	LL-George	PME	cueing_effect	210	1	sound	right			False	1	right	220.07373763	22.9136912879	0.6	0.083	283.14376832	 	go	1	0.1
SPC615	2015_May_07_1408	LL-George	PME	cueing_effect	211	1	sound	left			False	1	left	-188.290056459	-12.6627987318	0.6	0.083	408.926033881	 	go	1	0.1
SPC615	2015_May_07_1408	LL-George	PME	cueing_effect	212	0					False	1	left	-207.226193492	-5.73424492266	0.6	0.083	369.571539341	 	go	1	0.1
SPC615	2015_May_07_1408	LL-George	PME	cueing_effect	213	1	frame	left	-200	0	False	1	left	-181.469597236	11.1222741671	0.6	0.083	283.216746058	 	go	1	0.1
SPC615	2015_May_07_1408	LL-George	PME	cueing_effect	214	1	sound	left			False	1	left	-185.833538401	8.01415896417	0.6	0.083	494.401425822	 	go	1	0.1
SPC615	2015_May_07_1408	LL-George	PME	cueing_effect	215	1	sound	left			False	1	left	-202.887955945	4.30362707497	0.6	0.083	336.148053408	 	go	1	0.1
SPC615	2015_May_07_1408	LL-George	PME	cueing_effect	216	1	sound	right			False	1	right	217.050265813	18.487956429	0.6	0.083	275.150310481	 	go	1	0.1
SPC615	2015_May_07_1408	LL-George	PME	cueing_effect	217	0					False	1	right	201.412546269	-13.7403871617	0.6	0.083	344.318271382	 	go	1	0.1
SPC615	2015_May_07_1408	LL-George	PME	cueing_effect	218	1	frame	left	-200	0	False	0					0.083	1088.21114432		nogo	1	0.1
SPC615	2015_May_07_1408	LL-George	PME	cueing_effect	219	0					False	1	left	-178.500685852	-0.40872821374	0.6	0.083	338.133490644	 	go	1	0.1
SPC615	2015_May_07_1408	LL-George	PME	cueing_effect	220	1	frame	left	-200	0	False	1	left	-208.313405205	-0.391250022731	0.6	0.083	469.531383133	 	go	1	0.1
SPC615	2015_May_07_1408	LL-George	PME	cueing_effect	221	1	frame	right	200	0	False	1	right	186.635508209	-22.8790711087	0.6	0.083	253.277126933	 	go	1	0.1
SPC615	2015_May_07_1408	LL-George	PME	cueing_effect	222	1	sound	right			False	1	right	198.349223358	-11.3047916627	0.6	0.083	340.1673357	 	go	1	0.1
SPC615	2015_May_07_1408	LL-George	PME	cueing_effect	223	0					False	0					0.083	1082.7858469		nogo	1	0.1
SPC615	2015_May_07_1408	LL-George	PME	cueing_effect	224	1	sound	right			False	1	right	210.317844477	15.9173919323	0.6	0.083	306.722946465	 	go	1	0.1
SPC615	2015_May_07_1408	LL-George	PME	cueing_effect	225	1	frame	right	200	0	False	1	right	184.172210872	17.5366866241	0.6	0.083	435.427259654	 	go	1	0.1
SPC615	2015_May_07_1408	LL-George	PME	cueing_effect	226	1	sound	left			False	0					0.083	1083.85594399		nogo	1	0.1
SPC615	2015_May_07_1408	LL-George	PME	cueing_effect	227	1	sound	left			False	1	left	-184.44537688	-4.58228869693	0.6	0.083	373.414794682	 	go	1	0.1
SPC615	2015_May_07_1408	LL-George	PME	cueing_effect	228	1	sound	left			False	1	left	-212.324971638	-4.56944435112	0.6	0.083	439.227241557	 	go	1	0.1
SPC615	2015_May_07_1408	LL-George	PME	cueing_effect	229	0					False	1	right	218.095232661	-6.22772466685	0.6	0.083	389.00271547	 	go	1	0.1
SPC615	2015_May_07_1408	LL-George	PME	cueing_effect	230	1	frame	right	200	0	False	1	right	193.246153678	18.7438694587	0.6	0.083	385.060078464	 	go	1	0.1
SPC615	2015_May_07_1408	LL-George	PME	cueing_effect	231	1	frame	right	200	0	False	1	right	218.508668379	-6.26014292361	0.6	0.083	429.305188591	 	go	1	0.1
SPC615	2015_May_07_1408	LL-George	PME	cueing_effect	232	0					False	1	left	-213.534307795	17.0180463751	0.6	0.083	343.476642622	 	go	1	0.1
SPC615	2015_May_07_1408	LL-George	PME	cueing_effect	233	1	sound	left			False	1	left	-203.369292138	-18.4787041738	0.6	0.083	422.705277801	 	go	1	0.1
SPC615	2015_May_07_1408	LL-George	PME	cueing_effect	234	0					False	1	left	-198.100844228	-8.71731606785	0.6	0.083	1086.0199756		nogo	0	0.1
SPC615	2015_May_07_1408	LL-George	PME	cueing_effect	235	0					False	1	left	-199.304696187	22.0231079228	0.6	0.083	426.200146321	 	go	1	0.1
SPC615	2015_May_07_1408	LL-George	PME	cueing_effect	236	1	sound	right			False	1	right	217.936515753	-2.16335452357	0.6	0.083	412.277513649	 	go	1	0.1
SPC615	2015_May_07_1408	LL-George	PME	cueing_effect	237	1	frame	right	200	0	False	0					0.083	1080.32880374		nogo	1	0.1
SPC615	2015_May_07_1408	LL-George	PME	cueing_effect	238	1	frame	left	-200	0	False	1	left	-180.231715598	13.5342673159	0.6	0.083	389.427747345	 	go	1	0.1
SPC615	2015_May_07_1408	LL-George	PME	cueing_effect	239	1	sound	left			False	1	left	-181.579682716	13.3277748201	0.6	0.083	331.194727914	 	go	1	0.1
SPC615	2015_May_07_1408	LL-George	PME	cueing_effect	240	0					False	1	right	208.654150633	-15.2968702403	0.6	0.083	265.851319535	 	go	1	0.1
SPC615	2015_May_07_1408	LL-George	PME	cueing_effect	241	1	frame	right	200	0	False	1	right	207.970923739	13.1673479911	0.6	0.083	316.68057153	 	go	1	0.1
SPC615	2015_May_07_1408	LL-George	PME	cueing_effect	242	1	frame	right	200	0	False	1	right	176.595517741	-2.91241003504	0.6	0.083	317.655687453	 	go	1	0.1
SPC615	2015_May_07_1408	LL-George	PME	cueing_effect	243	1	frame	left	-200	0	False	1	left	-219.857652093	18.1253339797	0.6	0.083	347.592739621	 	go	1	0.1
SPC615	2015_May_07_1408	LL-George	PME	cueing_effect	244	0					False	1	right	196.385983981	-9.3573390597	0.6	0.083	429.203606443	 	go	1	0.1
SPC615	2015_May_07_1408	LL-George	PME	cueing_effect	245	1	frame	right	200	0	False	1	right	211.976101615	-21.6576640923	0.6	0.083	336.282273987	 	go	1	0.1
SPC615	2015_May_07_1408	LL-George	PME	cueing_effect	246	0					False	1	left	-219.039255979	-3.35447535406	0.6	0.083	336.283007404	 	go	1	0.1
SPC615	2015_May_07_1408	LL-George	PME	cueing_effect	247	1	sound	left			False	1	left	-203.948652932	-13.9357794217	0.6	0.083	343.955582706	 	go	1	0.1
SPC615	2015_May_07_1408	LL-George	PME	cueing_effect	248	0					False	1	right	195.932969734	11.3399254829	0.6	0.083	286.817597691	 	go	1	0.1
SPC615	2015_May_07_1408	LL-George	PME	cueing_effect	249	1	sound	right			False	0					0.083	1085.47539194		nogo	1	0.1
SPC615	2015_May_07_1408	LL-George	PME	cueing_effect	250	0					False	1	right	187.712420797	12.5326673506	0.6	0.083	359.621982323	 	go	1	0.1
SPC615	2015_May_07_1408	LL-George	PME	cueing_effect	251	1	sound	right			False	1	right	181.15248027	-10.4071310609	0.6	0.083	361.041932832	 	go	1	0.1
SPC615	2015_May_07_1408	LL-George	PME	cueing_effect	252	0					False	1	left	-208.364347772	2.08610118903	0.6	0.083	470.82371451	 	go	1	0.1
SPC615	2015_May_07_1408	LL-George	PME	cueing_effect	253	0					False	1	left	-223.576704177	11.7125669247	0.6	0.083	336.27420594	 	go	1	0.1
SPC615	2015_May_07_1408	LL-George	PME	cueing_effect	254	0					False	1	right	194.767671263	14.9215159632	0.6	0.083	394.353935262	 	go	1	0.1
SPC615	2015_May_07_1408	LL-George	PME	cueing_effect	255	1	frame	right	200	0	False	1	right	180.887446173	16.826969769	0.6	0.083	321.712742327	 	go	1	0.1
SPC615	2015_May_07_1408	LL-George	PME	cueing_effect	256	1	frame	right	200	0	False	1	right	181.95522688	-22.5893547898	0.6	0.083	297.928199405	 	go	1	0.1
SPC615	2015_May_07_1408	LL-George	PME	cueing_effect	257	1	frame	right	200	0	False	1	right	205.442618194	-13.8269146537	0.6	0.083	355.224975385	 	go	1	0.1
SPC615	2015_May_07_1408	LL-George	PME	cueing_effect	258	1	frame	right	200	0	False	0					0.083	1094.08274363		nogo	1	0.1
SPC615	2015_May_07_1408	LL-George	PME	cueing_effect	259	1	frame	left	-200	0	False	1	left	-192.136919628	17.9591444325	0.6	0.083	422.52154951	 	go	1	0.1
SPC615	2015_May_07_1408	LL-George	PME	cueing_effect	260	1	sound	left			False	1	left	-206.088043623	11.9818968381	0.6	0.083	524.349846179	 	go	1	0.1
SPC615	2015_May_07_1408	LL-George	PME	cueing_effect	261	1	frame	right	200	0	False	1	right	219.750569255	-20.7614346186	0.6	0.083	469.570622779	 	go	1	0.1
SPC615	2015_May_07_1408	LL-George	PME	cueing_effect	262	0					False	1	right	192.265297036	19.879840824	0.6	0.083	406.573506771	 	go	1	0.1
SPC615	2015_May_07_1408	LL-George	PME	cueing_effect	263	0					False	1	left	-187.582688035	16.1314614669	0.6	0.083	484.847929096	 	go	1	0.1
SPC615	2015_May_07_1408	LL-George	PME	cueing_effect	264	0					False	1	left	-179.225710014	-11.8702132828	0.6	0.083	701.668772381	 	go	1	0.1
SPC615	2015_May_07_1408	LL-George	PME	cueing_effect	265	1	frame	left	-200	0	False	1	left	-179.75315518	20.2101383164	0.6	0.083	469.10451795	 	go	1	0.1
SPC615	2015_May_07_1408	LL-George	PME	cueing_effect	266	0					False	1	right	222.466554546	-3.30160320391	0.6	0.083	453.851781785	 	go	1	0.1
SPC615	2015_May_07_1408	LL-George	PME	cueing_effect	267	1	frame	left	-200	0	False	1	left	-182.629177449	6.93343521096	0.6	0.083	269.026772585	 	go	1	0.1
SPC615	2015_May_07_1408	LL-George	PME	cueing_effect	268	1	frame	left	-200	0	False	1	left	-213.179758445	17.8987301956	0.6	0.083	361.148282653	 	go	1	0.1
SPC615	2015_May_07_1408	LL-George	PME	cueing_effect	269	0					False	1	left	-207.608169879	14.5293503514	0.6	0.083	502.196119633	 	go	1	0.1
SPC615	2015_May_07_1408	LL-George	PME	cueing_effect	270	0					False	0					0.083	1083.03961903		nogo	1	0.1
SPC615	2015_May_07_1408	LL-George	PME	cueing_effect	271	0					False	1	right	206.59348407	0.771388868275	0.6	0.083	298.402005341	 	go	1	0.1
SPC615	2015_May_07_1408	LL-George	PME	cueing_effect	272	1	frame	right	200	0	False	0					0.083	1079.17105965		nogo	1	0.1
SPC615	2015_May_07_1408	LL-George	PME	cueing_effect	273	1	sound	left			False	1	left	-214.570963519	-12.4968965492	0.6	0.083	383.834123844	 	go	1	0.1
SPC615	2015_May_07_1408	LL-George	PME	cueing_effect	274	1	sound	right			False	1	right	211.130917701	20.1284502914	0.6	0.083	327.67712255	 	go	1	0.1
SPC615	2015_May_07_1408	LL-George	PME	cueing_effect	275	0					False	1	left	-184.616299427	11.0781168336	0.6	0.083	490.260391496	 	go	1	0.1
SPC615	2015_May_07_1408	LL-George	PME	cueing_effect	276	0					False	1	right	217.65001729	-11.201184381	0.6	0.083	453.534199623	 	go	1	0.1
SPC615	2015_May_07_1408	LL-George	PME	cueing_effect	277	0					False	1	left	-216.693546202	-18.483283832	0.6	0.083	534.198554698	 	go	1	0.1
SPC615	2015_May_07_1408	LL-George	PME	cueing_effect	278	0					False	1	right	202.832577595	13.9319764244	0.6	0.083	669.946880313	 	go	1	0.1
SPC615	2015_May_07_1408	LL-George	PME	cueing_effect	279	1	frame	right	200	0	False	1	right	204.966424988	-14.9279011376	0.6	0.083	479.780553142	 	go	1	0.1
SPC615	2015_May_07_1408	LL-George	PME	cueing_effect	280	0					False	1	right	206.066275589	17.984782666	0.6	0.083	402.201803867	 	go	1	0.1
SPC615	2015_May_07_1408	LL-George	PME	cueing_effect	281	0					False	1	right	201.860095576	-5.07976131515	0.6	0.083	436.1970108	 	go	1	0.1
SPC615	2015_May_07_1408	LL-George	PME	cueing_effect	282	0					False	1	right	185.673379842	11.0598066628	0.6	0.083	338.230305584	 	go	1	0.1
SPC615	2015_May_07_1408	LL-George	PME	cueing_effect	283	1	sound	right			False	1	right	185.235684314	10.5094787793	0.6	0.083	314.132581232	 	go	1	0.1
SPC615	2015_May_07_1408	LL-George	PME	cueing_effect	284	1	sound	right			False	1	right	214.575029178	17.5202518283	0.6	0.083	287.918132963	 	go	1	0.1
SPC615	2015_May_07_1408	LL-George	PME	cueing_effect	285	1	sound	left			False	1	left	-184.692079915	19.154499794	0.6	0.083	335.678281263	 	go	1	0.1
SPC615	2015_May_07_1408	LL-George	PME	cueing_effect	286	0					False	0					0.083	1083.14083423		nogo	1	0.1
SPC615	2015_May_07_1408	LL-George	PME	cueing_effect	287	1	sound	right			False	0					0.083	1081.96805464		nogo	1	0.1
SPC615	2015_May_07_1408	LL-George	PME	cueing_effect	288	1	sound	right			False	1	right	178.098820123	-14.7478950513	0.6	0.083	321.201164043	 	go	1	0.1
SPC615	2015_May_07_1408	LL-George	PME	cueing_effect	289	1	sound	right			False	1	right	201.738853533	17.7028888823	0.6	0.083	294.053405756	 	go	1	0.1
SPC615	2015_May_07_1408	LL-George	PME	cueing_effect	290	1	sound	left			False	1	left	-221.439805315	-18.5291042956	0.6	0.083	371.201989241	 	go	1	0.1
SPC615	2015_May_07_1408	LL-George	PME	cueing_effect	291	1	sound	left			False	1	left	-210.327951339	-6.09181144629	0.6	0.083	353.577656439	 	go	1	0.1
SPC615	2015_May_07_1408	LL-George	PME	cueing_effect	292	1	sound	left			False	1	left	-212.944640038	17.6485504937	0.6	0.083	373.119215947	 	go	1	0.1
SPC615	2015_May_07_1408	LL-George	PME	cueing_effect	293	0					False	0					0.083	1085.87328624		nogo	1	0.1
SPC615	2015_May_07_1408	LL-George	PME	cueing_effect	294	0					False	1	right	188.526840821	-9.01896448116	0.6	0.083	353.69500774	 	go	1	0.1
SPC615	2015_May_07_1408	LL-George	PME	cueing_effect	295	1	frame	left	-200	0	False	1	left	-223.268522694	-5.61870468145	0.6	0.083	489.022701979	 	go	1	0.1
SPC615	2015_May_07_1408	LL-George	PME	cueing_effect	296	0					False	1	right	179.985744941	6.29928349996	0.6	0.083	308.45754547	 	go	1	0.1
SPC615	2015_May_07_1408	LL-George	PME	cueing_effect	297	0					False	1	left	-192.057747412	22.1338845058	0.6	0.083	348.49341074	 	go	1	0.1
SPC615	2015_May_07_1408	LL-George	PME	cueing_effect	298	1	frame	left	-200	0	False	1	left	-205.137191485	-6.53725444288	0.6	0.083	255.753606092	 	go	1	0.1
SPC615	2015_May_07_1408	LL-George	PME	cueing_effect	299	1	frame	right	200	0	False	1	right	186.2971973	16.749992098	0.6	0.083	290.250123246	 	go	1	0.1
SPC615	2015_May_07_1408	LL-George	PME	cueing_effect	300	1	sound	left			False	1	left	-209.608263713	18.550122757	0.6	0.083	445.355180185	 	go	1	0.1
SPC615	2015_May_07_1408	LL-George	PME	cueing_effect	301	0					False	0					0.083	1086.0911198		nogo	1	0.1
SPC615	2015_May_07_1408	LL-George	PME	cueing_effect	302	1	sound	right			False	1	right	201.906619375	-22.6550539422	0.6	0.083	320.262353402	 	go	1	0.1
SPC615	2015_May_07_1408	LL-George	PME	cueing_effect	303	1	frame	right	200	0	False	1	right	186.301928855	7.89995432044	0.6	0.083	342.786103254	 	go	1	0.1
SPC615	2015_May_07_1408	LL-George	PME	cueing_effect	304	1	sound	left			False	1	left	-213.848197752	-23.515283681	0.6	0.083	368.134352611	 	go	1	0.1
SPC615	2015_May_07_1408	LL-George	PME	cueing_effect	305	1	frame	left	-200	0	False	1	left	-182.829947403	-16.6287325644	0.6	0.083	318.421404809	 	go	1	0.1
SPC615	2015_May_07_1408	LL-George	PME	cueing_effect	306	0					False	0					0.083	1085.57697409		nogo	1	0.1
SPC615	2015_May_07_1408	LL-George	PME	cueing_effect	307	1	frame	right	200	0	False	1	right	211.378610722	21.7063375492	0.6	0.083	342.185411369	 	go	1	0.1
SPC615	2015_May_07_1408	LL-George	PME	cueing_effect	308	1	sound	left			False	1	left	-194.736730233	7.88630747824	0.6	0.083	433.023758	 	go	1	0.1
SPC615	2015_May_07_1408	LL-George	PME	cueing_effect	309	1	frame	right	200	0	False	1	right	176.584377651	5.45572595484	0.6	0.083	313.996160403	 	go	1	0.1
SPC615	2015_May_07_1408	LL-George	PME	cueing_effect	310	0					False	0					0.083	1082.5555448		nogo	1	0.1
SPC615	2015_May_07_1408	LL-George	PME	cueing_effect	311	0					False	1	right	203.222293623	-12.5465351457	0.6	0.083	436.824473552	 	go	1	0.1
SPC615	2015_May_07_1408	LL-George	PME	cueing_effect	312	1	sound	left			False	0					0.083	1080.08346613		nogo	1	0.1
SPC615	2015_May_07_1408	LL-George	PME	cueing_effect	313	1	sound	right			False	1	right	194.23331798	19.2163843477	0.6	0.083	446.814003633	 	go	1	0.1
SPC615	2015_May_07_1408	LL-George	PME	cueing_effect	314	0					False	1	left	-219.90736404	0.0936325202664	0.6	0.083	1085.63271607		nogo	0	0.1
SPC615	2015_May_07_1408	LL-George	PME	cueing_effect	315	1	sound	left			False	1	left	-183.638860694	-17.7371406143	0.6	0.083	427.720579086	 	go	1	0.1
SPC615	2015_May_07_1408	LL-George	PME	cueing_effect	316	1	sound	right			False	1	right	186.468397072	21.6878039295	0.6	0.083	500.198213616	 	go	1	0.1
SPC615	2015_May_07_1408	LL-George	PME	cueing_effect	317	1	sound	right			False	1	right	214.844233506	-1.34631320484	0.6	0.083	317.98610487	 	go	1	0.1
SPC615	2015_May_07_1408	LL-George	PME	cueing_effect	318	0					False	1	left	-188.657224177	22.5714708067	0.6	0.083	447.871999117	 	go	1	0.1
SPC615	2015_May_07_1408	LL-George	PME	cueing_effect	319	0					False	1	left	-218.311807103	10.7798848858	0.6	0.083	386.481129332	 	go	1	0.1
SPC615	2015_May_07_1408	LL-George	PME	cueing_effect	320	0					False	1	left	-215.992649515	-11.0533957533	0.6	0.083	438.130373601	 	go	1	0.1
SPC615	2015_May_07_1408	LL-George	PME	cueing_effect	321	0					False	1	right	177.272970329	8.69035771068	0.6	0.083	458.009318449	 	go	1	0.1
SPC615	2015_May_07_1408	LL-George	PME	cueing_effect	322	1	sound	right			False	1	right	209.591566952	-15.9007430298	0.6	0.083	305.103864986	 	go	1	0.1
SPC615	2015_May_07_1408	LL-George	PME	cueing_effect	323	1	sound	right			False	0					0.083	1085.19961662		nogo	1	0.1
SPC615	2015_May_07_1408	LL-George	PME	cueing_effect	324	1	frame	left	-200	0	False	1	left	-190.868366323	3.19436677773	0.6	0.083	538.051344687	 	go	1	0.1
SPC615	2015_May_07_1408	LL-George	PME	cueing_effect	325	1	sound	left			False	1	left	-178.682202782	2.6826687791	0.6	0.083	388.501772191	 	go	1	0.1
SPC615	2015_May_07_1408	LL-George	PME	cueing_effect	326	1	sound	right			False	1	right	205.65570474	-18.8438731957	0.6	0.083	290.599243483	 	go	1	0.1
SPC615	2015_May_07_1408	LL-George	PME	cueing_effect	327	0					False	1	right	181.743355775	-20.6514643554	0.6	0.083	368.519411655	 	go	1	0.1
SPC615	2015_May_07_1408	LL-George	PME	cueing_effect	328	1	sound	left			False	1	left	-178.950468565	-21.5860157332	0.6	0.083	349.32183777	 	go	1	0.1
SPC615	2015_May_07_1408	LL-George	PME	cueing_effect	329	1	frame	left	-200	0	False	1	left	-183.310889027	-6.77864127594	0.6	0.083	283.03998569	 	go	1	0.1
SPC615	2015_May_07_1408	LL-George	PME	cueing_effect	330	0					False	0					0.083	1079.43363325		nogo	1	0.1
SPC615	2015_May_07_1408	LL-George	PME	cueing_effect	331	1	frame	left	-200	0	False	1	left	-200.076188604	10.6518834957	0.6	0.083	385.58045798	 	go	1	0.1
SPC615	2015_May_07_1408	LL-George	PME	cueing_effect	332	1	frame	left	-200	0	False	1	left	-203.669445676	-3.0215448714	0.6	0.083	336.079842877	 	go	1	0.1
SPC615	2015_May_07_1408	LL-George	PME	cueing_effect	333	1	sound	left			False	1	left	-178.263238433	-9.55715871725	0.6	0.083	478.526727762	 	go	1	0.1
SPC615	2015_May_07_1408	LL-George	PME	cueing_effect	334	0					False	1	left	-205.601454525	-19.723504666	0.6	0.083	360.034911893	 	go	1	0.1
SPC615	2015_May_07_1408	LL-George	PME	cueing_effect	335	0					False	1	left	-221.201920151	17.5807108157	0.6	0.083	460.694462992	 	go	1	0.1
SPC615	2015_May_07_1408	LL-George	PME	cueing_effect	336	1	frame	right	200	0	False	1	right	190.94169548	4.44570017099	0.6	0.083	249.827365158	 	go	1	0.1
SPC615	2015_May_07_1408	LL-George	PME	cueing_effect	337	0					False	1	right	190.291299647	14.215264034	0.6	0.083	273.555432912	 	go	1	0.1
SPC615	2015_May_07_1408	LL-George	PME	cueing_effect	338	0					False	0					0.083	1080.74906794		nogo	1	0.1
SPC615	2015_May_07_1408	LL-George	PME	cueing_effect	339	1	frame	right	200	0	False	1	right	208.441344083	14.9648549242	0.6	0.083	426.465286873	 	go	1	0.1
SPC615	2015_May_07_1408	LL-George	PME	cueing_effect	340	1	sound	right			False	1	right	206.882693832	15.3631266136	0.6	0.083	348.076446913	 	go	1	0.1
SPC615	2015_May_07_1408	LL-George	PME	cueing_effect	341	1	frame	left	-200	0	False	1	left	-209.146931032	-17.0721706421	0.6	0.083	365.592596587	 	go	1	0.1
SPC615	2015_May_07_1408	LL-George	PME	cueing_effect	342	1	frame	right	200	0	False	1	right	208.384547374	-20.440835699	0.6	0.083	270.879823249	 	go	1	0.1
SPC615	2015_May_07_1408	LL-George	PME	cueing_effect	343	1	sound	left			False	1	left	-213.266490208	20.2927622378	0.6	0.083	377.626973204	 	go	1	0.1
SPC615	2015_May_07_1408	LL-George	PME	cueing_effect	344	0					False	1	right	183.460977306	4.10125659965	0.6	0.083	349.689294118	 	go	1	0.1
SPC615	2015_May_07_1408	LL-George	PME	cueing_effect	345	1	frame	left	-200	0	False	0					0.083	1085.48822743		nogo	1	0.1
SPC615	2015_May_07_1408	LL-George	PME	cueing_effect	346	1	sound	left			False	1	left	-192.21838768	21.2985401083	0.6	0.083	543.814760866	 	go	1	0.1
SPC615	2015_May_07_1408	LL-George	PME	cueing_effect	347	1	frame	right	200	0	False	0					0.083	1079.51101172		nogo	1	0.1
SPC615	2015_May_07_1408	LL-George	PME	cueing_effect	348	1	frame	right	200	0	False	0					0.083	1085.39654664		nogo	1	0.1
SPC615	2015_May_07_1408	LL-George	PME	cueing_effect	349	0					False	0					0.083	1081.07251767		nogo	1	0.1
SPC615	2015_May_07_1408	LL-George	PME	cueing_effect	350	1	sound	left			False	1	left	-213.654906333	-15.2466570048	0.6	0.083	412.013840163	 	go	1	0.1
SPC615	2015_May_07_1408	LL-George	PME	cueing_effect	351	0					False	1	left	-216.091320535	-13.2153339786	0.6	0.083	521.316315047	 	go	1	0.1
SPC615	2015_May_07_1408	LL-George	PME	cueing_effect	352	1	sound	left			False	1	left	-223.639837156	10.2985412874	0.6	0.083	353.69427409	 	go	1	0.1
SPC615	2015_May_07_1408	LL-George	PME	cueing_effect	353	1	sound	left			False	0					0.083	1079.55831895		nogo	1	0.1
SPC615	2015_May_07_1408	LL-George	PME	cueing_effect	354	0					False	1	right	200.409752088	15.6080359009	0.6	0.083	369.637916097	 	go	1	0.1
SPC615	2015_May_07_1408	LL-George	PME	cueing_effect	355	1	sound	right			False	1	right	208.956206259	13.0024343392	0.6	0.083	448.590409243	 	go	1	0.1
SPC615	2015_May_07_1408	LL-George	PME	cueing_effect	356	1	frame	right	200	0	False	1	right	180.402447064	-3.51993192727	0.6	0.083	327.124838019	 	go	1	0.1
SPC615	2015_May_07_1408	LL-George	PME	cueing_effect	357	1	frame	right	200	0	False	1	right	194.351846168	18.1820039431	0.6	0.083	310.016484233	 	go	1	0.1
SPC615	2015_May_07_1408	LL-George	PME	cueing_effect	358	0					False	1	right	188.235960587	-13.7956520339	0.6	0.083	527.138773352	 	go	1	0.1
SPC615	2015_May_07_1408	LL-George	PME	cueing_effect	359	1	sound	left			False	1	left	-187.852525494	-4.09823142766	0.6	0.083	407.196569024	 	go	1	0.1
