subj_id	date	computer	experimenter	part	trial_ix	cue_present	cue_type	cue_loc	cue_pos_x	cue_pos_y	mask_flicker	target_present	target_loc	target_pos_x	target_pos_y	target_opacity	target_duration	rt	key	response	is_correct
SPC613	2015_May_07_1358	LL-Jerry	PME	practice	0	0					False	1	left	-179.329310194	-10.6509382259	0.6	0.083	438.794653863	 	go	1	0.1
SPC613	2015_May_07_1358	LL-Jerry	PME	practice	1	0					False	0					0.083	1081.97795972		nogo	1	0.1
SPC613	2015_May_07_1358	LL-Jerry	PME	practice	2	0					False	1	right	182.942622075	-18.6526428488	0.6	0.083	328.072661534	 	go	1	0.1
SPC613	2015_May_07_1358	LL-Jerry	PME	practice	3	0					False	1	left	-210.822258344	15.991983724	0.6	0.083	362.490143627	 	go	1	0.1
SPC613	2015_May_07_1358	LL-Jerry	PME	practice	4	0					False	1	right	191.467204657	-14.1510341637	0.6	0.083	385.618897155	 	go	1	0.1
SPC613	2015_May_07_1358	LL-Jerry	PME	practice	5	0					False	1	right	203.006650394	-10.0564093228	0.6	0.083	284.515764564	 	go	1	0.1
SPC613	2015_May_07_1358	LL-Jerry	PME	practice	6	0					False	1	left	-177.085622368	-2.55672509811	0.6	0.083	468.813518062	 	go	1	0.1
SPC613	2015_May_07_1358	LL-Jerry	PME	practice	7	0					False	1	right	210.331441441	-8.63811204995	0.6	0.083	326.067451388	 	go	1	0.1
SPC613	2015_May_07_1358	LL-Jerry	PME	practice	8	0					False	1	left	-188.566924998	21.7333504079	0.6	0.083	287.347925827	 	go	1	0.1
SPC613	2015_May_07_1358	LL-Jerry	PME	practice	9	0					False	1	right	183.026031943	-2.33236040161	0.6	0.083	295.043315738	 	go	1	0.1
SPC613	2015_May_07_1358	LL-Jerry	PME	cueing_effect	0	1	frame	right	200	0	False	1	right	219.744872303	7.80898917985	0.6	0.083	326.978806406	 	go	1	0.1
SPC613	2015_May_07_1358	LL-Jerry	PME	cueing_effect	1	1	frame	right	200	0	False	1	right	189.572944342	-11.2726197907	0.6	0.083	307.704212144	 	go	1	0.1
SPC613	2015_May_07_1358	LL-Jerry	PME	cueing_effect	2	0					False	0					0.083	1080.86699434		nogo	1	0.1
SPC613	2015_May_07_1358	LL-Jerry	PME	cueing_effect	3	1	frame	left	-200	0	False	1	left	-220.866025185	-11.5124658954	0.6	0.083	417.411049828	 	go	1	0.1
SPC613	2015_May_07_1358	LL-Jerry	PME	cueing_effect	4	1	frame	left	-200	0	False	1	left	-218.197366782	18.9181368883	0.6	0.083	391.872541979	 	go	1	0.1
SPC613	2015_May_07_1358	LL-Jerry	PME	cueing_effect	5	1	frame	left	-200	0	False	0					0.083	1079.49064486		nogo	1	0.1
SPC613	2015_May_07_1358	LL-Jerry	PME	cueing_effect	6	1	sound	left			False	1	left	-189.040883879	5.3635960592	0.6	0.083	594.374608248	 	go	1	0.1
SPC613	2015_May_07_1358	LL-Jerry	PME	cueing_effect	7	1	frame	left	-200	0	False	1	left	-182.564376916	8.17379220727	0.6	0.083	438.709866256	 	go	1	0.1
SPC613	2015_May_07_1358	LL-Jerry	PME	cueing_effect	8	1	sound	left			False	1	left	-216.399968959	-23.0696926635	0.6	0.083	329.456236213	 	go	1	0.1
SPC613	2015_May_07_1358	LL-Jerry	PME	cueing_effect	9	1	sound	left			False	1	left	-214.390698903	-1.45982904876	0.6	0.083	889.663539827	 	go	1	0.1
SPC613	2015_May_07_1358	LL-Jerry	PME	cueing_effect	10	0					False	1	right	197.3390252	-9.16241880241	0.6	0.083	312.779974192	 	go	1	0.1
SPC613	2015_May_07_1358	LL-Jerry	PME	cueing_effect	11	1	sound	left			False	1	left	-181.699697529	-15.5784982682	0.6	0.083	312.084956095	 	go	1	0.1
SPC613	2015_May_07_1358	LL-Jerry	PME	cueing_effect	12	1	frame	left	-200	0	False	1	left	-216.45419125	2.80070678952	0.6	0.083	329.46764119	 	go	1	0.1
SPC613	2015_May_07_1358	LL-Jerry	PME	cueing_effect	13	1	frame	right	200	0	False	1	right	198.150040934	13.2131976502	0.6	0.083	288.085149601	 	go	1	0.1
SPC613	2015_May_07_1358	LL-Jerry	PME	cueing_effect	14	1	frame	right	200	0	False	1	right	179.700560797	-17.2641196357	0.6	0.083	374.147670344	 	go	1	0.1
SPC613	2015_May_07_1358	LL-Jerry	PME	cueing_effect	15	1	frame	left	-200	0	False	1	left	-220.425043444	-14.9436087518	0.6	0.083	421.313494444	 	go	1	0.1
SPC613	2015_May_07_1358	LL-Jerry	PME	cueing_effect	16	1	sound	left			False	1	left	-207.482296321	5.7671238539	0.6	0.083	581.794317812	 	go	1	0.1
SPC613	2015_May_07_1358	LL-Jerry	PME	cueing_effect	17	0					False	1	right	216.222969455	7.32099155658	0.6	0.083	398.55582267	 	go	1	0.1
SPC613	2015_May_07_1358	LL-Jerry	PME	cueing_effect	18	0					False	1	right	197.949558628	-9.8198182601	0.6	0.083	325.018838048	 	go	1	0.1
SPC613	2015_May_07_1358	LL-Jerry	PME	cueing_effect	19	0					False	1	right	206.103306853	9.56949822248	0.6	0.083	284.308172762	 	go	1	0.1
SPC613	2015_May_07_1358	LL-Jerry	PME	cueing_effect	20	0					False	1	right	204.705286584	21.9971587531	0.6	0.083	337.277093902	 	go	1	0.1
SPC613	2015_May_07_1358	LL-Jerry	PME	cueing_effect	21	1	frame	right	200	0	False	1	right	219.40291408	22.7769289893	0.6	0.083	309.914354235	 	go	1	0.1
SPC613	2015_May_07_1358	LL-Jerry	PME	cueing_effect	22	1	sound	left			False	1	left	-192.147066284	-21.5375198998	0.6	0.083	392.330311239	 	go	1	0.1
SPC613	2015_May_07_1358	LL-Jerry	PME	cueing_effect	23	1	sound	right			False	1	right	217.115835722	6.36326876336	0.6	0.083	326.8016316	 	go	1	0.1
SPC613	2015_May_07_1358	LL-Jerry	PME	cueing_effect	24	0					False	1	right	222.13299747	-6.42076836495	0.6	0.083	337.178241462	 	go	1	0.1
SPC613	2015_May_07_1358	LL-Jerry	PME	cueing_effect	25	1	sound	left			False	1	left	-197.973506168	9.43196580921	0.6	0.083	337.071401998	 	go	1	0.1
SPC613	2015_May_07_1358	LL-Jerry	PME	cueing_effect	26	1	sound	left			False	1	left	-216.078256329	-4.29067858443	0.6	0.083	303.521173075	 	go	1	0.1
SPC613	2015_May_07_1358	LL-Jerry	PME	cueing_effect	27	1	sound	right			False	0					0.083	1087.48563752		nogo	1	0.1
SPC613	2015_May_07_1358	LL-Jerry	PME	cueing_effect	28	1	sound	right			False	1	right	220.986018731	-0.737821449441	0.6	0.083	347.28452377	 	go	1	0.1
SPC613	2015_May_07_1358	LL-Jerry	PME	cueing_effect	29	1	sound	left			False	1	left	-190.858495185	-2.30473359468	0.6	0.083	333.185685799	 	go	1	0.1
SPC613	2015_May_07_1358	LL-Jerry	PME	cueing_effect	30	1	sound	left			False	0					0.083	1087.4586422		nogo	1	0.1
SPC613	2015_May_07_1358	LL-Jerry	PME	cueing_effect	31	0					False	1	right	199.428873061	11.2089336577	0.6	0.083	334.338093176	 	go	1	0.1
SPC613	2015_May_07_1358	LL-Jerry	PME	cueing_effect	32	1	frame	right	200	0	False	1	right	197.176970568	-14.3254300479	0.6	0.083	406.175930053	 	go	1	0.1
SPC613	2015_May_07_1358	LL-Jerry	PME	cueing_effect	33	1	frame	right	200	0	False	0					0.083	1081.72474056		nogo	1	0.1
SPC613	2015_May_07_1358	LL-Jerry	PME	cueing_effect	34	1	sound	left			False	0					0.083	1080.7133913		nogo	1	0.1
SPC613	2015_May_07_1358	LL-Jerry	PME	cueing_effect	35	0					False	1	right	188.811306262	-11.6860546467	0.6	0.083	296.110939234	 	go	1	0.1
SPC613	2015_May_07_1358	LL-Jerry	PME	cueing_effect	36	1	sound	right			False	0					0.083	1080.13243414		nogo	1	0.1
SPC613	2015_May_07_1358	LL-Jerry	PME	cueing_effect	37	0					False	1	right	196.837921493	22.0303246136	0.6	0.083	476.437810808	 	go	1	0.1
SPC613	2015_May_07_1358	LL-Jerry	PME	cueing_effect	38	1	sound	left			False	1	left	-213.828562811	12.6664957242	0.6	0.083	395.377671346	 	go	1	0.1
SPC613	2015_May_07_1358	LL-Jerry	PME	cueing_effect	39	1	frame	left	-200	0	False	1	left	-221.765613991	6.98287775363	0.6	0.083	420.678548515	 	go	1	0.1
SPC613	2015_May_07_1358	LL-Jerry	PME	cueing_effect	40	0					False	1	left	-183.103269343	1.34392978818	0.6	0.083	385.913176462	 	go	1	0.1
SPC613	2015_May_07_1358	LL-Jerry	PME	cueing_effect	41	0					False	1	left	-190.133696736	-8.1007415664	0.6	0.083	337.603691965	 	go	1	0.1
SPC613	2015_May_07_1358	LL-Jerry	PME	cueing_effect	42	0					False	1	left	-219.185086451	-5.96046694349	0.6	0.083	295.602221042	 	go	1	0.1
SPC613	2015_May_07_1358	LL-Jerry	PME	cueing_effect	43	0					False	0					0.083	1081.05557598		nogo	1	0.1
SPC613	2015_May_07_1358	LL-Jerry	PME	cueing_effect	44	1	frame	right	200	0	False	1	right	210.120672144	-17.023247114	0.6	0.083	365.282002836	 	go	1	0.1
SPC613	2015_May_07_1358	LL-Jerry	PME	cueing_effect	45	0					False	1	left	-203.453504107	-1.42963941458	0.6	0.083	324.555747211	 	go	1	0.1
SPC613	2015_May_07_1358	LL-Jerry	PME	cueing_effect	46	1	frame	right	200	0	False	1	right	214.307224792	8.04695007145	0.6	0.083	368.57573688	 	go	1	0.1
SPC613	2015_May_07_1358	LL-Jerry	PME	cueing_effect	47	1	frame	right	200	0	False	1	right	187.930839458	11.0048036701	0.6	0.083	368.121007457	 	go	1	0.1
SPC613	2015_May_07_1358	LL-Jerry	PME	cueing_effect	48	0					False	1	left	-188.250411117	9.39879012025	0.6	0.083	327.833130956	 	go	1	0.1
SPC613	2015_May_07_1358	LL-Jerry	PME	cueing_effect	49	1	sound	left			False	0					0.083	1083.76036957		nogo	1	0.1
SPC613	2015_May_07_1358	LL-Jerry	PME	cueing_effect	50	1	sound	right			False	1	right	222.784239197	6.74015880884	0.6	0.083	315.290480852	 	go	1	0.1
SPC613	2015_May_07_1358	LL-Jerry	PME	cueing_effect	51	1	frame	right	200	0	False	1	right	219.558904665	15.204082362	0.6	0.083	360.888712108	 	go	1	0.1
SPC613	2015_May_07_1358	LL-Jerry	PME	cueing_effect	52	0					False	1	left	-189.076356894	16.9183243387	0.6	0.083	627.273542807	 	go	1	0.1
SPC613	2015_May_07_1358	LL-Jerry	PME	cueing_effect	53	0					False	1	right	196.199248095	-18.2081808549	0.6	0.083	345.84772028	 	go	1	0.1
SPC613	2015_May_07_1358	LL-Jerry	PME	cueing_effect	54	1	frame	left	-200	0	False	1	left	-178.916790177	5.45066010413	0.6	0.083	315.241055563	 	go	1	0.1
SPC613	2015_May_07_1358	LL-Jerry	PME	cueing_effect	55	0					False	1	right	184.657984409	12.4889906622	0.6	0.083	293.841481209	 	go	1	0.1
SPC613	2015_May_07_1358	LL-Jerry	PME	cueing_effect	56	1	frame	left	-200	0	False	1	left	-193.619578153	9.04754410748	0.6	0.083	393.70666258	 	go	1	0.1
SPC613	2015_May_07_1358	LL-Jerry	PME	cueing_effect	57	1	sound	left			False	1	left	-223.775859172	-7.73430629425	0.6	0.083	337.436400354	 	go	1	0.1
SPC613	2015_May_07_1358	LL-Jerry	PME	cueing_effect	58	1	sound	right			False	1	right	212.105087392	-5.16096980875	0.6	0.083	308.417860419	 	go	1	0.1
SPC613	2015_May_07_1358	LL-Jerry	PME	cueing_effect	59	1	frame	right	200	0	False	0					0.083	1082.25474879		nogo	1	0.1
SPC613	2015_May_07_1358	LL-Jerry	PME	cueing_effect	60	1	frame	left	-200	0	False	1	left	-222.98081855	-7.27235899353	0.6	0.083	343.323526904	 	go	1	0.1
SPC613	2015_May_07_1358	LL-Jerry	PME	cueing_effect	61	0					False	1	left	-209.160399466	-10.0294146619	0.6	0.083	417.844865471	 	go	1	0.1
SPC613	2015_May_07_1358	LL-Jerry	PME	cueing_effect	62	1	frame	right	200	0	False	1	right	202.178254771	-10.9973103098	0.6	0.083	336.071077734	 	go	1	0.1
SPC613	2015_May_07_1358	LL-Jerry	PME	cueing_effect	63	0					False	1	right	193.604855503	-15.7041849941	0.6	0.083	321.561235934	 	go	1	0.1
SPC613	2015_May_07_1358	LL-Jerry	PME	cueing_effect	64	1	sound	left			False	1	left	-200.560000241	-17.2218752304	0.6	0.083	308.198859915	 	go	1	0.1
SPC613	2015_May_07_1358	LL-Jerry	PME	cueing_effect	65	1	frame	right	200	0	False	1	right	178.216852133	11.99274758	0.6	0.083	369.663888589	 	go	1	0.1
SPC613	2015_May_07_1358	LL-Jerry	PME	cueing_effect	66	1	frame	left	-200	0	False	1	left	-211.452789332	-10.7976503362	0.6	0.083	327.096290886	 	go	1	0.1
SPC613	2015_May_07_1358	LL-Jerry	PME	cueing_effect	67	1	frame	left	-200	0	False	1	left	-210.867403584	-1.44767199948	0.6	0.083	348.379520699	 	go	1	0.1
SPC613	2015_May_07_1358	LL-Jerry	PME	cueing_effect	68	1	sound	left			False	1	left	-206.688985546	-17.3096116563	0.6	0.083	334.165479988	 	go	1	0.1
SPC613	2015_May_07_1358	LL-Jerry	PME	cueing_effect	69	0					False	1	left	-215.426288701	-19.0698093843	0.6	0.083	271.946119145	 	go	1	0.1
SPC613	2015_May_07_1358	LL-Jerry	PME	cueing_effect	70	1	sound	right			False	1	right	198.684185293	-7.15059613554	0.6	0.083	300.760870799	 	go	1	0.1
SPC613	2015_May_07_1358	LL-Jerry	PME	cueing_effect	71	1	sound	right			False	1	right	184.365707252	19.6100042287	0.6	0.083	305.331718177	 	go	1	0.1
SPC613	2015_May_07_1358	LL-Jerry	PME	cueing_effect	72	1	frame	right	200	0	False	1	right	179.615686251	-8.66823418667	0.6	0.083	313.460545614	 	go	1	0.1
SPC613	2015_May_07_1358	LL-Jerry	PME	cueing_effect	73	1	frame	left	-200	0	False	1	left	-197.88300576	8.91738609138	0.6	0.083	311.573198065	 	go	1	0.1
SPC613	2015_May_07_1358	LL-Jerry	PME	cueing_effect	74	1	sound	left			False	0					0.083	1075.65017417		nogo	1	0.1
SPC613	2015_May_07_1358	LL-Jerry	PME	cueing_effect	75	0					False	1	right	208.203210688	-13.1528781808	0.6	0.083	454.807830974	 	go	1	0.1
SPC613	2015_May_07_1358	LL-Jerry	PME	cueing_effect	76	1	frame	left	-200	0	False	1	left	-179.888281337	1.37540355295	0.6	0.083	340.801233426	 	go	1	0.1
SPC613	2015_May_07_1358	LL-Jerry	PME	cueing_effect	77	1	frame	left	-200	0	False	1	left	-217.655186241	-23.7801721644	0.6	0.083	296.726873145	 	go	1	0.1
SPC613	2015_May_07_1358	LL-Jerry	PME	cueing_effect	78	1	frame	right	200	0	False	0					0.083	1087.63962239		nogo	1	0.1
SPC613	2015_May_07_1358	LL-Jerry	PME	cueing_effect	79	1	sound	left			False	0					0.083	1088.32741715		nogo	1	0.1
SPC613	2015_May_07_1358	LL-Jerry	PME	cueing_effect	80	0					False	1	left	-197.880924868	-5.49191656423	0.6	0.083	354.400478303	 	go	1	0.1
SPC613	2015_May_07_1358	LL-Jerry	PME	cueing_effect	81	1	sound	right			False	1	right	216.389790777	15.0861665857	0.6	0.083	395.367404446	 	go	1	0.1
SPC613	2015_May_07_1358	LL-Jerry	PME	cueing_effect	82	1	sound	right			False	1	right	182.558601432	20.562061454	0.6	0.083	277.41121687	 	go	1	0.1
SPC613	2015_May_07_1358	LL-Jerry	PME	cueing_effect	83	1	sound	left			False	1	left	-195.277114019	10.5394209997	0.6	0.083	289.917746559	 	go	1	0.1
SPC613	2015_May_07_1358	LL-Jerry	PME	cueing_effect	84	1	sound	right			False	1	right	206.030907164	12.9768098808	0.6	0.083	290.724925697	 	go	1	0.1
SPC613	2015_May_07_1358	LL-Jerry	PME	cueing_effect	85	0					False	1	left	-188.813388936	-23.9582567846	0.6	0.083	420.600224286	 	go	1	0.1
SPC613	2015_May_07_1358	LL-Jerry	PME	cueing_effect	86	1	frame	left	-200	0	False	1	left	-195.681858232	22.5117676837	0.6	0.083	321.038452908	 	go	1	0.1
SPC613	2015_May_07_1358	LL-Jerry	PME	cueing_effect	87	1	frame	right	200	0	False	1	right	184.339024987	-9.20952717486	0.6	0.083	588.363535702	 	go	1	0.1
SPC613	2015_May_07_1358	LL-Jerry	PME	cueing_effect	88	1	sound	left			False	1	left	-179.362811782	-14.7019983042	0.6	0.083	354.144979268	 	go	1	0.1
SPC613	2015_May_07_1358	LL-Jerry	PME	cueing_effect	89	0					False	1	left	-177.134371691	-2.74915567183	0.6	0.083	352.441651747	 	go	1	0.1
SPC613	2015_May_07_1358	LL-Jerry	PME	cueing_effect	90	0					False	0					0.083	1088.36999908		nogo	1	0.1
SPC613	2015_May_07_1358	LL-Jerry	PME	cueing_effect	91	1	frame	right	200	0	False	1	right	183.156426494	-13.5888437908	0.6	0.083	404.697306454	 	go	1	0.1
SPC613	2015_May_07_1358	LL-Jerry	PME	cueing_effect	92	1	frame	right	200	0	False	1	right	179.791805313	-12.1543496716	0.6	0.083	311.166375875	 	go	1	0.1
SPC613	2015_May_07_1358	LL-Jerry	PME	cueing_effect	93	1	sound	right			False	1	right	212.770550525	11.8054827365	0.6	0.083	371.432611719	 	go	1	0.1
SPC613	2015_May_07_1358	LL-Jerry	PME	cueing_effect	94	1	frame	right	200	0	False	0					0.083	1081.51980862		nogo	1	0.1
SPC613	2015_May_07_1358	LL-Jerry	PME	cueing_effect	95	1	sound	left			False	0					0.083	1079.52600345		nogo	1	0.1
SPC613	2015_May_07_1358	LL-Jerry	PME	cueing_effect	96	1	sound	right			False	1	right	193.556675325	22.1983951443	0.6	0.083	464.589418843	 	go	1	0.1
SPC613	2015_May_07_1358	LL-Jerry	PME	cueing_effect	97	1	frame	left	-200	0	False	1	left	-210.370525533	-16.3316991978	0.6	0.083	378.8493108	 	go	1	0.1
SPC613	2015_May_07_1358	LL-Jerry	PME	cueing_effect	98	1	sound	right			False	1	right	212.017002581	-8.3557533911	0.6	0.083	455.340502784	 	go	1	0.1
SPC613	2015_May_07_1358	LL-Jerry	PME	cueing_effect	99	1	sound	right			False	1	right	218.993556967	9.79119977593	0.6	0.083	353.311184794	 	go	1	0.1
SPC613	2015_May_07_1358	LL-Jerry	PME	cueing_effect	100	1	frame	right	200	0	False	1	right	203.415436824	-4.24027696465	0.6	0.083	421.855669469	 	go	1	0.1
SPC613	2015_May_07_1358	LL-Jerry	PME	cueing_effect	101	1	frame	right	200	0	False	1	right	207.704955134	9.88460677154	0.6	0.083	344.796828926	 	go	1	0.1
SPC613	2015_May_07_1358	LL-Jerry	PME	cueing_effect	102	1	frame	left	-200	0	False	1	left	-205.493796506	-19.1125888892	0.6	0.083	315.512903035	 	go	1	0.1
SPC613	2015_May_07_1358	LL-Jerry	PME	cueing_effect	103	1	sound	left			False	1	left	-199.181939807	21.3085563616	0.6	0.083	358.349688351	 	go	1	0.1
SPC613	2015_May_07_1358	LL-Jerry	PME	cueing_effect	104	0					False	1	left	-185.511165836	0.961180439842	0.6	0.083	545.140460134	 	go	1	0.1
SPC613	2015_May_07_1358	LL-Jerry	PME	cueing_effect	105	0					False	0					0.083	1080.06589673		nogo	1	0.1
SPC613	2015_May_07_1358	LL-Jerry	PME	cueing_effect	106	1	frame	right	200	0	False	1	right	197.186199309	-1.20328998722	0.6	0.083	348.36887382	 	go	1	0.1
SPC613	2015_May_07_1358	LL-Jerry	PME	cueing_effect	107	1	frame	left	-200	0	False	1	left	-188.261163567	-16.0042486428	0.6	0.083	367.978811264	 	go	1	0.1
SPC613	2015_May_07_1358	LL-Jerry	PME	cueing_effect	108	1	sound	left			False	1	left	-177.210656707	2.53917352199	0.6	0.083	393.590318039	 	go	1	0.1
SPC613	2015_May_07_1358	LL-Jerry	PME	cueing_effect	109	0					False	1	left	-198.51358886	-14.0070863821	0.6	0.083	341.128591448	 	go	1	0.1
SPC613	2015_May_07_1358	LL-Jerry	PME	cueing_effect	110	0					False	1	right	217.70506548	20.4186127511	0.6	0.083	327.339623123	 	go	1	0.1
SPC613	2015_May_07_1358	LL-Jerry	PME	cueing_effect	111	1	frame	right	200	0	False	1	right	176.355470914	-3.6927327984	0.6	0.083	337.396480143	 	go	1	0.1
SPC613	2015_May_07_1358	LL-Jerry	PME	cueing_effect	112	1	sound	left			False	1	left	-222.857568772	-19.8155074743	0.6	0.083	304.314285517	 	go	1	0.1
SPC613	2015_May_07_1358	LL-Jerry	PME	cueing_effect	113	0					False	1	left	-208.128812186	-7.7575407748	0.6	0.083	370.784739032	 	go	1	0.1
SPC613	2015_May_07_1358	LL-Jerry	PME	cueing_effect	114	0					False	0					0.083	1087.46966906		nogo	1	0.1
SPC613	2015_May_07_1358	LL-Jerry	PME	cueing_effect	115	1	frame	left	-200	0	False	1	left	-178.732472492	15.1213643638	0.6	0.083	282.218173146	 	go	1	0.1
SPC613	2015_May_07_1358	LL-Jerry	PME	cueing_effect	116	1	sound	left			False	0					0.083	1086.96019091		nogo	1	0.1
SPC613	2015_May_07_1358	LL-Jerry	PME	cueing_effect	117	1	sound	left			False	1	left	-186.341345721	-15.4046102285	0.6	0.083	354.52404432	 	go	1	0.1
SPC613	2015_May_07_1358	LL-Jerry	PME	cueing_effect	118	1	sound	left			False	1	left	-185.506154182	-9.65274896489	0.6	0.083	354.195546359	 	go	1	0.1
SPC613	2015_May_07_1358	LL-Jerry	PME	cueing_effect	119	1	sound	right			False	1	right	209.225623436	7.85307093776	0.6	0.083	337.528411299	 	go	1	0.1
SPC613	2015_May_07_1358	LL-Jerry	PME	cueing_effect	120	1	sound	left			False	1	left	-213.072584125	7.83406175457	0.6	0.083	342.8878095	 	go	1	0.1
SPC613	2015_May_07_1358	LL-Jerry	PME	cueing_effect	121	0					False	1	right	214.226993881	-16.0277104228	0.6	0.083	317.709740251	 	go	1	0.1
SPC613	2015_May_07_1358	LL-Jerry	PME	cueing_effect	122	0					False	1	left	-178.028741799	-0.738995204041	0.6	0.083	329.050553963	 	go	1	0.1
SPC613	2015_May_07_1358	LL-Jerry	PME	cueing_effect	123	1	sound	left			False	0					0.083	1080.29896393		nogo	1	0.1
SPC613	2015_May_07_1358	LL-Jerry	PME	cueing_effect	124	1	frame	right	200	0	False	1	right	189.37694282	0.482340726202	0.6	0.083	371.244410053	 	go	1	0.1
SPC613	2015_May_07_1358	LL-Jerry	PME	cueing_effect	125	1	sound	left			False	1	left	-203.158406768	-9.02400715412	0.6	0.083	350.433778018	 	go	1	0.1
SPC613	2015_May_07_1358	LL-Jerry	PME	cueing_effect	126	0					False	1	right	180.820002887	12.456849541	0.6	0.083	352.646203712	 	go	1	0.1
SPC613	2015_May_07_1358	LL-Jerry	PME	cueing_effect	127	1	sound	right			False	1	right	192.772513118	-12.4689128339	0.6	0.083	338.967114687	 	go	1	0.1
SPC613	2015_May_07_1358	LL-Jerry	PME	cueing_effect	128	1	frame	right	200	0	False	1	right	188.778542835	3.78705714295	0.6	0.083	354.484884068	 	go	1	0.1
SPC613	2015_May_07_1358	LL-Jerry	PME	cueing_effect	129	1	frame	right	200	0	False	1	right	211.937654043	7.70787254934	0.6	0.083	370.499202982	 	go	1	0.1
SPC613	2015_May_07_1358	LL-Jerry	PME	cueing_effect	130	0					False	0					0.083	1088.09130825		nogo	1	0.1
SPC613	2015_May_07_1358	LL-Jerry	PME	cueing_effect	131	1	sound	left			False	1	left	-211.655634916	-10.9213718272	0.6	0.083	358.98197256	 	go	1	0.1
SPC613	2015_May_07_1358	LL-Jerry	PME	cueing_effect	132	1	frame	left	-200	0	False	1	left	-204.166590576	-17.1469184438	0.6	0.083	612.250043079	 	go	1	0.1
SPC613	2015_May_07_1358	LL-Jerry	PME	cueing_effect	133	1	frame	left	-200	0	False	1	left	-209.793362116	-19.8211485358	0.6	0.083	405.432626605	 	go	1	0.1
SPC613	2015_May_07_1358	LL-Jerry	PME	cueing_effect	134	0					False	1	left	-188.077742737	-18.2049806282	0.6	0.083	323.243273422	 	go	1	0.1
SPC613	2015_May_07_1358	LL-Jerry	PME	cueing_effect	135	1	sound	left			False	1	left	-199.984804732	19.0364417793	0.6	0.083	357.026187703	 	go	1	0.1
SPC613	2015_May_07_1358	LL-Jerry	PME	cueing_effect	136	1	sound	left			False	1	left	-203.049437007	-15.7790896636	0.6	0.083	262.033743784	 	go	1	0.1
SPC613	2015_May_07_1358	LL-Jerry	PME	cueing_effect	137	1	sound	right			False	1	right	202.243482789	11.598211161	0.6	0.083	248.674407601	 	go	1	0.1
SPC613	2015_May_07_1358	LL-Jerry	PME	cueing_effect	138	1	frame	left	-200	0	False	1	left	-207.015207259	11.1030604117	0.6	0.083	304.362190887	 	go	1	0.1
SPC613	2015_May_07_1358	LL-Jerry	PME	cueing_effect	139	1	sound	right			False	1	right	187.521338593	-16.9946724295	0.6	0.083	371.512075886	 	go	1	0.1
SPC613	2015_May_07_1358	LL-Jerry	PME	cueing_effect	140	1	sound	left			False	1	left	-185.093307957	17.2550949952	0.6	0.083	322.347884998	 	go	1	0.1
SPC613	2015_May_07_1358	LL-Jerry	PME	cueing_effect	141	1	sound	right			False	1	right	198.52373231	-18.7297436949	0.6	0.083	270.691055804	 	go	1	0.1
SPC613	2015_May_07_1358	LL-Jerry	PME	cueing_effect	142	0					False	1	left	-187.805034432	-13.9127407252	0.6	0.083	347.120655701	 	go	1	0.1
SPC613	2015_May_07_1358	LL-Jerry	PME	cueing_effect	143	1	sound	left			False	1	left	-210.863874229	17.7539212914	0.6	0.083	299.370452762	 	go	1	0.1
SPC613	2015_May_07_1358	LL-Jerry	PME	cueing_effect	144	1	sound	left			False	1	left	-191.287770264	-23.9517562157	0.6	0.083	298.850711435	 	go	1	0.1
SPC613	2015_May_07_1358	LL-Jerry	PME	cueing_effect	145	1	sound	right			False	1	right	201.208985976	-6.58755637647	0.6	0.083	255.120437592	 	go	1	0.1
SPC613	2015_May_07_1358	LL-Jerry	PME	cueing_effect	146	1	frame	right	200	0	False	1	right	207.982040929	8.00922708745	0.6	0.083	323.352010921	 	go	1	0.1
SPC613	2015_May_07_1358	LL-Jerry	PME	cueing_effect	147	0					False	1	right	186.166732697	12.7639964933	0.6	0.083	274.171091616	 	go	1	0.1
SPC613	2015_May_07_1358	LL-Jerry	PME	cueing_effect	148	1	frame	right	200	0	False	1	right	187.842771891	4.75892498139	0.6	0.083	365.350440145	 	go	1	0.1
SPC613	2015_May_07_1358	LL-Jerry	PME	cueing_effect	149	0					False	0					0.083	1088.55744079		nogo	1	0.1
SPC613	2015_May_07_1358	LL-Jerry	PME	cueing_effect	150	1	frame	left	-200	0	False	1	left	-190.993414679	-17.3950128957	0.6	0.083	354.743044823	 	go	1	0.1
SPC613	2015_May_07_1358	LL-Jerry	PME	cueing_effect	151	1	frame	right	200	0	False	1	right	208.991845367	0.360539944316	0.6	0.083	329.961910844	 	go	1	0.1
SPC613	2015_May_07_1358	LL-Jerry	PME	cueing_effect	152	1	frame	right	200	0	False	1	right	192.796775841	-22.0636916081	0.6	0.083	337.101059034	 	go	1	0.1
SPC613	2015_May_07_1358	LL-Jerry	PME	cueing_effect	153	1	frame	left	-200	0	False	1	left	-177.736860316	-2.42526870333	0.6	0.083	317.347401753	 	go	1	0.1
SPC613	2015_May_07_1358	LL-Jerry	PME	cueing_effect	154	1	sound	left			False	1	left	-201.099193141	-1.7353833351	0.6	0.083	274.966103956	 	go	1	0.1
SPC613	2015_May_07_1358	LL-Jerry	PME	cueing_effect	155	1	sound	right			False	1	right	211.529518646	-10.3361470902	0.6	0.083	256.291095167	 	go	1	0.1
SPC613	2015_May_07_1358	LL-Jerry	PME	cueing_effect	156	1	sound	right			False	1	right	196.116395589	6.6894591809	0.6	0.083	256.137492135	 	go	1	0.1
SPC613	2015_May_07_1358	LL-Jerry	PME	cueing_effect	157	0					False	0					0.083	1087.5898134		nogo	1	0.1
SPC613	2015_May_07_1358	LL-Jerry	PME	cueing_effect	158	1	frame	left	-200	0	False	0					0.083	1086.84042655		nogo	1	0.1
SPC613	2015_May_07_1358	LL-Jerry	PME	cueing_effect	159	1	sound	left			False	1	left	-221.650701957	2.46302364811	0.6	0.083	386.21962443	 	go	1	0.1
SPC613	2015_May_07_1358	LL-Jerry	PME	cueing_effect	160	1	sound	right			False	0					0.083	1083.05356465		nogo	1	0.1
SPC613	2015_May_07_1358	LL-Jerry	PME	cueing_effect	161	1	frame	right	200	0	False	0					0.083	1086.64918132		nogo	1	0.1
SPC613	2015_May_07_1358	LL-Jerry	PME	cueing_effect	162	1	sound	right			False	1	right	208.946371944	0.241811736689	0.6	0.083	346.444645897	 	go	1	0.1
SPC613	2015_May_07_1358	LL-Jerry	PME	cueing_effect	163	1	sound	left			False	0					0.083	1081.12173155		nogo	1	0.1
SPC613	2015_May_07_1358	LL-Jerry	PME	cueing_effect	164	1	frame	left	-200	0	False	1	left	-202.57970914	-17.057236408	0.6	0.083	420.975109562	 	go	1	0.1
SPC613	2015_May_07_1358	LL-Jerry	PME	cueing_effect	165	1	sound	left			False	1	left	-204.080629919	7.28455979522	0.6	0.083	304.147753865	 	go	1	0.1
SPC613	2015_May_07_1358	LL-Jerry	PME	cueing_effect	166	1	frame	right	200	0	False	1	right	183.201997095	-8.59137118389	0.6	0.083	311.292605475	 	go	1	0.1
SPC613	2015_May_07_1358	LL-Jerry	PME	cueing_effect	167	1	frame	left	-200	0	False	1	left	-212.615354758	0.461150344288	0.6	0.083	305.591780692	 	go	1	0.1
SPC613	2015_May_07_1358	LL-Jerry	PME	cueing_effect	168	1	frame	left	-200	0	False	1	left	-180.887125977	-8.63600328767	0.6	0.083	270.697141066	 	go	1	0.1
SPC613	2015_May_07_1358	LL-Jerry	PME	cueing_effect	169	1	frame	right	200	0	False	1	right	187.395721069	-21.7720564965	0.6	0.083	295.268779621	 	go	1	0.1
SPC613	2015_May_07_1358	LL-Jerry	PME	cueing_effect	170	0					False	1	right	216.293363966	13.6918578527	0.6	0.083	445.000011474	 	go	1	0.1
SPC613	2015_May_07_1358	LL-Jerry	PME	cueing_effect	171	1	frame	right	200	0	False	1	right	204.8011353	-15.3465050529	0.6	0.083	304.002134129	 	go	1	0.1
SPC613	2015_May_07_1358	LL-Jerry	PME	cueing_effect	172	0					False	1	right	215.737849276	6.43379510407	0.6	0.083	329.095799476	 	go	1	0.1
SPC613	2015_May_07_1358	LL-Jerry	PME	cueing_effect	173	1	sound	left			False	0					0.083	1080.45827039		nogo	1	0.1
SPC613	2015_May_07_1358	LL-Jerry	PME	cueing_effect	174	1	sound	left			False	1	left	-211.997772522	15.5353694418	0.6	0.083	338.696787134	 	go	1	0.1
SPC613	2015_May_07_1358	LL-Jerry	PME	cueing_effect	175	1	frame	right	200	0	False	1	right	192.567755949	20.2492414187	0.6	0.083	359.873557463	 	go	1	0.1
SPC613	2015_May_07_1358	LL-Jerry	PME	cueing_effect	176	1	sound	right			False	1	right	222.044744069	16.6088068058	0.6	0.083	357.950851321	 	go	1	0.1
SPC613	2015_May_07_1358	LL-Jerry	PME	cueing_effect	177	1	sound	right			False	1	right	206.145321097	-20.3435921064	0.6	0.083	238.58903721	 	go	1	0.1
SPC613	2015_May_07_1358	LL-Jerry	PME	cueing_effect	178	0					False	1	right	202.396850086	22.4311633337	0.6	0.083	335.215611383	 	go	1	0.1
SPC613	2015_May_07_1358	LL-Jerry	PME	cueing_effect	179	1	frame	right	200	0	False	1	right	194.50638988	-5.66165357616	0.6	0.083	401.204723865	 	go	1	0.1
SPC613	2015_May_07_1358	LL-Jerry	PME	cueing_effect	180	0					False	1	right	198.62694966	13.7572570041	0.6	0.083	394.480383024	 	go	1	0.1
SPC613	2015_May_07_1358	LL-Jerry	PME	cueing_effect	181	0					False	0					0.083	1082.87638612		nogo	1	0.1
SPC613	2015_May_07_1358	LL-Jerry	PME	cueing_effect	182	0					False	0					0.083	1080.76585829		nogo	1	0.1
SPC613	2015_May_07_1358	LL-Jerry	PME	cueing_effect	183	1	frame	right	200	0	False	1	right	217.142900837	-8.50547320623	0.6	0.083	386.44964993	 	go	1	0.1
SPC613	2015_May_07_1358	LL-Jerry	PME	cueing_effect	184	0					False	0					0.083	1088.54489401		nogo	1	0.1
SPC613	2015_May_07_1358	LL-Jerry	PME	cueing_effect	185	1	sound	left			False	1	left	-219.489433282	5.06823638185	0.6	0.083	389.624757692	 	go	1	0.1
SPC613	2015_May_07_1358	LL-Jerry	PME	cueing_effect	186	1	frame	right	200	0	False	1	right	210.592910849	14.9620676794	0.6	0.083	376.836875454	 	go	1	0.1
SPC613	2015_May_07_1358	LL-Jerry	PME	cueing_effect	187	0					False	1	left	-177.964916963	-4.70773784497	0.6	0.083	570.96564211	 	go	1	0.1
SPC613	2015_May_07_1358	LL-Jerry	PME	cueing_effect	188	1	frame	right	200	0	False	0					0.083	1081.9783397		nogo	1	0.1
SPC613	2015_May_07_1358	LL-Jerry	PME	cueing_effect	189	0					False	1	right	188.045645095	16.0150768991	0.6	0.083	455.360272899	 	go	1	0.1
SPC613	2015_May_07_1358	LL-Jerry	PME	cueing_effect	190	1	sound	left			False	1	left	-184.024765307	18.5283829053	0.6	0.083	387.227553874	 	go	1	0.1
SPC613	2015_May_07_1358	LL-Jerry	PME	cueing_effect	191	1	sound	right			False	1	right	185.108732479	21.6042566353	0.6	0.083	305.84005639	 	go	1	0.1
SPC613	2015_May_07_1358	LL-Jerry	PME	cueing_effect	192	0					False	1	left	-223.853136994	-11.2630223446	0.6	0.083	394.32791993	 	go	1	0.1
SPC613	2015_May_07_1358	LL-Jerry	PME	cueing_effect	193	0					False	1	right	177.474314854	-5.99816236871	0.6	0.083	331.724930555	 	go	1	0.1
SPC613	2015_May_07_1358	LL-Jerry	PME	cueing_effect	194	0					False	1	left	-211.227945806	21.0098015834	0.6	0.083	273.392809555	 	go	1	0.1
SPC613	2015_May_07_1358	LL-Jerry	PME	cueing_effect	195	1	frame	left	-200	0	False	0					0.083	1081.99316636		nogo	1	0.1
SPC613	2015_May_07_1358	LL-Jerry	PME	cueing_effect	196	1	frame	left	-200	0	False	1	left	-195.649127909	-1.02828470724	0.6	0.083	320.094017312	 	go	1	0.1
SPC613	2015_May_07_1358	LL-Jerry	PME	cueing_effect	197	1	frame	right	200	0	False	1	right	221.965745028	3.88924112022	0.6	0.083	326.565140858	 	go	1	0.1
SPC613	2015_May_07_1358	LL-Jerry	PME	cueing_effect	198	1	frame	right	200	0	False	1	right	193.652744198	19.000399864	0.6	0.083	518.956743181	 	go	1	0.1
SPC613	2015_May_07_1358	LL-Jerry	PME	cueing_effect	199	0					False	1	right	213.978666098	0.617388160192	0.6	0.083	450.393628329	 	go	1	0.1
SPC613	2015_May_07_1358	LL-Jerry	PME	cueing_effect	200	1	sound	right			False	0					0.083	1087.71984652		nogo	1	0.1
SPC613	2015_May_07_1358	LL-Jerry	PME	cueing_effect	201	1	sound	left			False	1	left	-194.930766452	-20.2895909498	0.6	0.083	300.741478801	 	go	1	0.1
SPC613	2015_May_07_1358	LL-Jerry	PME	cueing_effect	202	0					False	1	right	206.739938192	-15.5121227877	0.6	0.083	330.186992884	 	go	1	0.1
SPC613	2015_May_07_1358	LL-Jerry	PME	cueing_effect	203	1	frame	right	200	0	False	1	right	217.316857932	-6.71291091329	0.6	0.083	290.371332318	 	go	1	0.1
SPC613	2015_May_07_1358	LL-Jerry	PME	cueing_effect	204	0					False	1	left	-194.42352115	-22.5879145616	0.6	0.083	470.517225564	 	go	1	0.1
SPC613	2015_May_07_1358	LL-Jerry	PME	cueing_effect	205	1	sound	left			False	1	left	-197.110432683	-19.1099525384	0.6	0.083	348.839949816	 	go	1	0.1
SPC613	2015_May_07_1358	LL-Jerry	PME	cueing_effect	206	1	frame	left	-200	0	False	1	left	-183.746917306	-2.49186584447	0.6	0.083	325.276238844	 	go	1	0.1
SPC613	2015_May_07_1358	LL-Jerry	PME	cueing_effect	207	0					False	1	left	-207.9294304	-13.0435123564	0.6	0.083	320.639615878	 	go	1	0.1
SPC613	2015_May_07_1358	LL-Jerry	PME	cueing_effect	208	1	frame	right	200	0	False	0					0.083	1087.36549318		nogo	1	0.1
SPC613	2015_May_07_1358	LL-Jerry	PME	cueing_effect	209	0					False	1	left	-213.969235625	-15.7340602624	0.6	0.083	349.900728092	 	go	1	0.1
SPC613	2015_May_07_1358	LL-Jerry	PME	cueing_effect	210	1	frame	left	-200	0	False	1	left	-186.374246297	-4.85985517553	0.6	0.083	360.427519307	 	go	1	0.1
SPC613	2015_May_07_1358	LL-Jerry	PME	cueing_effect	211	1	frame	left	-200	0	False	1	left	-191.752751665	4.35580415298	0.6	0.083	340.903887525	 	go	1	0.1
SPC613	2015_May_07_1358	LL-Jerry	PME	cueing_effect	212	0					False	1	right	200.892455548	16.7936028257	0.6	0.083	269.536368549	 	go	1	0.1
SPC613	2015_May_07_1358	LL-Jerry	PME	cueing_effect	213	1	sound	left			False	0					0.083	1095.1220952		nogo	1	0.1
SPC613	2015_May_07_1358	LL-Jerry	PME	cueing_effect	214	0					False	1	left	-222.943924117	-17.8185408026	0.6	0.083	361.303897575	 	go	1	0.1
SPC613	2015_May_07_1358	LL-Jerry	PME	cueing_effect	215	0					False	1	left	-210.571853253	13.7918034117	0.6	0.083	405.564177781	 	go	1	0.1
SPC613	2015_May_07_1358	LL-Jerry	PME	cueing_effect	216	1	sound	right			False	1	right	198.290653097	-1.66278007468	0.6	0.083	308.614807203	 	go	1	0.1
SPC613	2015_May_07_1358	LL-Jerry	PME	cueing_effect	217	0					False	1	left	-196.675363242	9.71668532306	0.6	0.083	462.7754502	 	go	1	0.1
SPC613	2015_May_07_1358	LL-Jerry	PME	cueing_effect	218	0					False	0					0.083	1095.22208944		nogo	1	0.1
SPC613	2015_May_07_1358	LL-Jerry	PME	cueing_effect	219	1	sound	right			False	1	right	188.26374494	0.330572428979	0.6	0.083	352.7119793	 	go	1	0.1
SPC613	2015_May_07_1358	LL-Jerry	PME	cueing_effect	220	1	frame	left	-200	0	False	1	left	-182.052893907	-21.3312205347	0.6	0.083	364.691540599	 	go	1	0.1
SPC613	2015_May_07_1358	LL-Jerry	PME	cueing_effect	221	1	frame	left	-200	0	False	1	left	-203.110248595	19.3591365184	0.6	0.083	379.341678694	 	go	1	0.1
SPC613	2015_May_07_1358	LL-Jerry	PME	cueing_effect	222	1	frame	left	-200	0	False	0					0.083	1080.64305224		nogo	1	0.1
SPC613	2015_May_07_1358	LL-Jerry	PME	cueing_effect	223	0					False	1	left	-203.705533418	-13.3996061734	0.6	0.083	398.649733514	 	go	1	0.1
SPC613	2015_May_07_1358	LL-Jerry	PME	cueing_effect	224	1	sound	left			False	1	left	-221.384186275	-19.5899799558	0.6	0.083	401.376197115	 	go	1	0.1
SPC613	2015_May_07_1358	LL-Jerry	PME	cueing_effect	225	1	sound	right			False	1	right	189.225334226	-5.65098562345	0.6	0.083	317.332953215	 	go	1	0.1
SPC613	2015_May_07_1358	LL-Jerry	PME	cueing_effect	226	1	frame	left	-200	0	False	1	left	-205.803512457	7.63399032975	0.6	0.083	545.352615416	 	go	1	0.1
SPC613	2015_May_07_1358	LL-Jerry	PME	cueing_effect	227	1	sound	right			False	0					0.083	1081.20423742		nogo	1	0.1
SPC613	2015_May_07_1358	LL-Jerry	PME	cueing_effect	228	1	sound	right			False	1	right	184.795806892	5.26960082506	0.6	0.083	339.443514124	 	go	1	0.1
SPC613	2015_May_07_1358	LL-Jerry	PME	cueing_effect	229	0					False	1	left	-215.545479564	-19.3970753201	0.6	0.083	460.121225566	 	go	1	0.1
SPC613	2015_May_07_1358	LL-Jerry	PME	cueing_effect	230	1	sound	left			False	0					0.083	1087.29705401		nogo	1	0.1
SPC613	2015_May_07_1358	LL-Jerry	PME	cueing_effect	231	1	frame	right	200	0	False	1	right	208.791990505	-15.051807038	0.6	0.083	456.610774621	 	go	1	0.1
SPC613	2015_May_07_1358	LL-Jerry	PME	cueing_effect	232	0					False	1	left	-182.880163921	0.225765417263	0.6	0.083	353.564022109	 	go	1	0.1
SPC613	2015_May_07_1358	LL-Jerry	PME	cueing_effect	233	1	frame	left	-200	0	False	1	left	-215.4068356	-20.0744127563	0.6	0.083	362.312966958	 	go	1	0.1
SPC613	2015_May_07_1358	LL-Jerry	PME	cueing_effect	234	1	sound	left			False	1	left	-215.48036251	-9.28346259787	0.6	0.083	312.133621424	 	go	1	0.1
SPC613	2015_May_07_1358	LL-Jerry	PME	cueing_effect	235	1	sound	right			False	1	right	179.637372974	11.0871395612	0.6	0.083	263.664830476	 	go	1	0.1
SPC613	2015_May_07_1358	LL-Jerry	PME	cueing_effect	236	0					False	1	left	-206.383089884	19.1478612683	0.6	0.083	287.583654746	 	go	1	0.1
SPC613	2015_May_07_1358	LL-Jerry	PME	cueing_effect	237	1	frame	right	200	0	False	1	right	201.673648731	2.64871120275	0.6	0.083	280.277976766	 	go	1	0.1
SPC613	2015_May_07_1358	LL-Jerry	PME	cueing_effect	238	1	frame	right	200	0	False	1	right	190.683806914	-5.15661065429	0.6	0.083	270.446203649	 	go	1	0.1
SPC613	2015_May_07_1358	LL-Jerry	PME	cueing_effect	239	1	frame	left	-200	0	False	1	left	-203.253073417	13.510697684	0.6	0.083	288.031538948	 	go	1	0.1
SPC613	2015_May_07_1358	LL-Jerry	PME	cueing_effect	240	1	sound	left			False	1	left	-222.637256401	16.8784298586	0.6	0.083	303.644360974	 	go	1	0.1
SPC613	2015_May_07_1358	LL-Jerry	PME	cueing_effect	241	1	sound	right			False	1	right	212.440759581	1.959698686	0.6	0.083	261.238731444	 	go	1	0.1
SPC613	2015_May_07_1358	LL-Jerry	PME	cueing_effect	242	1	frame	right	200	0	False	1	right	221.50195791	12.2070398761	0.6	0.083	320.936555043	 	go	1	0.1
SPC613	2015_May_07_1358	LL-Jerry	PME	cueing_effect	243	0					False	1	right	195.747903904	-10.7134506733	0.6	0.083	380.272425711	 	go	1	0.1
SPC613	2015_May_07_1358	LL-Jerry	PME	cueing_effect	244	0					False	1	right	211.419676589	8.92891922619	0.6	0.083	337.86489442	 	go	1	0.1
SPC613	2015_May_07_1358	LL-Jerry	PME	cueing_effect	245	1	sound	left			False	1	left	-209.583159428	-10.364952859	0.6	0.083	279.46927771	 	go	1	0.1
SPC613	2015_May_07_1358	LL-Jerry	PME	cueing_effect	246	0					False	1	right	220.056798054	11.4815089318	0.6	0.083	373.492954299	 	go	1	0.1
SPC613	2015_May_07_1358	LL-Jerry	PME	cueing_effect	247	0					False	1	left	-205.089655079	-15.9563693716	0.6	0.083	337.391916662	 	go	1	0.1
SPC613	2015_May_07_1358	LL-Jerry	PME	cueing_effect	248	0					False	1	right	181.066331376	8.54642976377	0.6	0.083	552.744220942	 	go	1	0.1
SPC613	2015_May_07_1358	LL-Jerry	PME	cueing_effect	249	1	sound	right			False	1	right	222.127542086	2.39068293226	0.6	0.083	255.973622203	 	go	1	0.1
SPC613	2015_May_07_1358	LL-Jerry	PME	cueing_effect	250	1	frame	right	200	0	False	1	right	191.374285432	-21.6930394257	0.6	0.083	438.582496718	 	go	1	0.1
SPC613	2015_May_07_1358	LL-Jerry	PME	cueing_effect	251	1	sound	right			False	1	right	220.431954446	21.9244083277	0.6	0.083	268.225034699	 	go	1	0.1
SPC613	2015_May_07_1358	LL-Jerry	PME	cueing_effect	252	1	frame	right	200	0	False	1	right	188.101073098	14.9846792183	0.6	0.083	281.542925164	 	go	1	0.1
SPC613	2015_May_07_1358	LL-Jerry	PME	cueing_effect	253	0					False	1	left	-195.994419754	-17.4600627425	0.6	0.083	309.448221698	 	go	1	0.1
SPC613	2015_May_07_1358	LL-Jerry	PME	cueing_effect	254	1	frame	left	-200	0	False	1	left	-213.131742207	-19.9795049678	0.6	0.083	294.798083603	 	go	1	0.1
SPC613	2015_May_07_1358	LL-Jerry	PME	cueing_effect	255	0					False	1	right	210.017218622	15.5407850063	0.6	0.083	270.622620359	 	go	1	0.1
SPC613	2015_May_07_1358	LL-Jerry	PME	cueing_effect	256	1	sound	right			False	0					0.083	1080.83961904		nogo	1	0.1
SPC613	2015_May_07_1358	LL-Jerry	PME	cueing_effect	257	1	sound	left			False	1	left	-198.408644783	2.99802088683	0.6	0.083	329.211002216	 	go	1	0.1
SPC613	2015_May_07_1358	LL-Jerry	PME	cueing_effect	258	0					False	1	left	-197.101383728	22.2393287841	0.6	0.083	311.645057052	 	go	1	0.1
SPC613	2015_May_07_1358	LL-Jerry	PME	cueing_effect	259	1	sound	right			False	1	right	196.05143352	-8.10295469873	0.6	0.083	258.633552119	 	go	1	0.1
SPC613	2015_May_07_1358	LL-Jerry	PME	cueing_effect	260	1	sound	right			False	1	right	220.944059678	-8.37282217194	0.6	0.083	304.504768923	 	go	1	0.1
SPC613	2015_May_07_1358	LL-Jerry	PME	cueing_effect	261	1	sound	left			False	1	left	-205.068383372	-2.99585015329	0.6	0.083	320.652922615	 	go	1	0.1
SPC613	2015_May_07_1358	LL-Jerry	PME	cueing_effect	262	1	frame	right	200	0	False	1	right	186.04712424	13.3166905704	0.6	0.083	306.23356998	 	go	1	0.1
SPC613	2015_May_07_1358	LL-Jerry	PME	cueing_effect	263	1	frame	left	-200	0	False	1	left	-182.183296581	-22.3152120397	0.6	0.083	339.9282787	 	go	1	0.1
SPC613	2015_May_07_1358	LL-Jerry	PME	cueing_effect	264	1	frame	right	200	0	False	0					0.083	1086.83814481		nogo	1	0.1
SPC613	2015_May_07_1358	LL-Jerry	PME	cueing_effect	265	0					False	1	left	-194.328215634	17.0183124973	0.6	0.083	337.525749579	 	go	1	0.1
SPC613	2015_May_07_1358	LL-Jerry	PME	cueing_effect	266	1	frame	left	-200	0	False	1	left	-204.958984746	3.6071237285	0.6	0.083	314.397374168	 	go	1	0.1
SPC613	2015_May_07_1358	LL-Jerry	PME	cueing_effect	267	1	sound	right			False	1	right	217.362074661	-20.5661734527	0.6	0.083	311.986101791	 	go	1	0.1
SPC613	2015_May_07_1358	LL-Jerry	PME	cueing_effect	268	1	sound	right			False	1	right	217.054436138	-3.72733863163	0.6	0.083	393.862927333	 	go	1	0.1
SPC613	2015_May_07_1358	LL-Jerry	PME	cueing_effect	269	0					False	1	right	215.151234638	-8.80659455437	0.6	0.083	304.7503829	 	go	1	0.1
SPC613	2015_May_07_1358	LL-Jerry	PME	cueing_effect	270	1	sound	left			False	1	left	-179.382318338	-22.7201011797	0.6	0.083	291.67049937	 	go	1	0.1
SPC613	2015_May_07_1358	LL-Jerry	PME	cueing_effect	271	1	sound	right			False	1	right	178.423617917	-17.4428994065	0.6	0.083	338.342433795	 	go	1	0.1
SPC613	2015_May_07_1358	LL-Jerry	PME	cueing_effect	272	1	sound	right			False	1	right	220.479998388	-10.4073706969	0.6	0.083	254.477888346	 	go	1	0.1
SPC613	2015_May_07_1358	LL-Jerry	PME	cueing_effect	273	1	sound	right			False	0					0.083	365.305194631	 	go	0	0.1
SPC613	2015_May_07_1358	LL-Jerry	PME	cueing_effect	274	1	sound	left			False	1	left	-181.125537193	-6.44584556538	0.6	0.083	317.892998457	 	go	1	0.1
SPC613	2015_May_07_1358	LL-Jerry	PME	cueing_effect	275	1	frame	right	200	0	False	0					0.083	1088.0570896		nogo	1	0.1
SPC613	2015_May_07_1358	LL-Jerry	PME	cueing_effect	276	1	frame	left	-200	0	False	1	left	-193.873253931	-15.2505129436	0.6	0.083	459.038397297	 	go	1	0.1
SPC613	2015_May_07_1358	LL-Jerry	PME	cueing_effect	277	1	sound	right			False	1	right	183.341609504	-23.1434708297	0.6	0.083	362.775299698	 	go	1	0.1
SPC613	2015_May_07_1358	LL-Jerry	PME	cueing_effect	278	1	sound	right			False	1	right	199.931485274	-5.91175589119	0.6	0.083	334.393223748	 	go	1	0.1
SPC613	2015_May_07_1358	LL-Jerry	PME	cueing_effect	279	0					False	0					0.083	1088.64489011		nogo	1	0.1
SPC613	2015_May_07_1358	LL-Jerry	PME	cueing_effect	280	1	frame	right	200	0	False	1	right	193.968514463	8.50463256231	0.6	0.083	363.15132305	 	go	1	0.1
SPC613	2015_May_07_1358	LL-Jerry	PME	cueing_effect	281	0					False	1	right	202.906902537	-2.62741090048	0.6	0.083	319.673508406	 	go	1	0.1
SPC613	2015_May_07_1358	LL-Jerry	PME	cueing_effect	282	1	frame	left	-200	0	False	1	left	-204.189306741	-14.8498891639	0.6	0.083	275.297263637	 	go	1	0.1
SPC613	2015_May_07_1358	LL-Jerry	PME	cueing_effect	283	0					False	1	right	187.157198617	-18.9790182545	0.6	0.083	302.859993652	 	go	1	0.1
SPC613	2015_May_07_1358	LL-Jerry	PME	cueing_effect	284	0					False	1	left	-203.674793008	12.533054577	0.6	0.083	359.323779121	 	go	1	0.1
SPC613	2015_May_07_1358	LL-Jerry	PME	cueing_effect	285	0					False	1	right	194.031079969	9.45614361358	0.6	0.083	281.21708706	 	go	1	0.1
SPC613	2015_May_07_1358	LL-Jerry	PME	cueing_effect	286	0					False	1	right	182.976113948	-6.33832534052	0.6	0.083	304.436331615	 	go	1	0.1
SPC613	2015_May_07_1358	LL-Jerry	PME	cueing_effect	287	0					False	1	right	208.629577419	8.00226276624	0.6	0.083	471.079932526	 	go	1	0.1
SPC613	2015_May_07_1358	LL-Jerry	PME	cueing_effect	288	1	sound	left			False	0					0.083	1080.8190871		nogo	1	0.1
SPC613	2015_May_07_1358	LL-Jerry	PME	cueing_effect	289	0					False	1	left	-206.055227212	-1.29840892592	0.6	0.083	324.357658625	 	go	1	0.1
SPC613	2015_May_07_1358	LL-Jerry	PME	cueing_effect	290	0					False	1	left	-191.948804708	21.9175796596	0.6	0.083	370.495403185	 	go	1	0.1
SPC613	2015_May_07_1358	LL-Jerry	PME	cueing_effect	291	1	sound	right			False	0					0.083	1081.24377951		nogo	1	0.1
SPC613	2015_May_07_1358	LL-Jerry	PME	cueing_effect	292	1	sound	left			False	1	left	-186.964024148	11.4563313645	0.6	0.083	292.776521295	 	go	1	0.1
SPC613	2015_May_07_1358	LL-Jerry	PME	cueing_effect	293	0					False	1	right	214.569110851	-22.4283739598	0.6	0.083	337.863372639	 	go	1	0.1
SPC613	2015_May_07_1358	LL-Jerry	PME	cueing_effect	294	1	frame	left	-200	0	False	1	left	-190.167815135	-0.470007630463	0.6	0.083	363.525446504	 	go	1	0.1
SPC613	2015_May_07_1358	LL-Jerry	PME	cueing_effect	295	0					False	1	right	184.987400862	-10.327348007	0.6	0.083	340.129787102	 	go	1	0.1
SPC613	2015_May_07_1358	LL-Jerry	PME	cueing_effect	296	0					False	0					0.083	1086.8947953		nogo	1	0.1
SPC613	2015_May_07_1358	LL-Jerry	PME	cueing_effect	297	1	sound	left			False	1	left	-207.789942122	-15.0374320289	0.6	0.083	323.485085741	 	go	1	0.1
SPC613	2015_May_07_1358	LL-Jerry	PME	cueing_effect	298	1	sound	right			False	1	right	216.763760424	-4.4775862761	0.6	0.083	346.454530954	 	go	1	0.1
SPC613	2015_May_07_1358	LL-Jerry	PME	cueing_effect	299	1	frame	left	-200	0	False	1	left	-183.158444755	-14.0740457823	0.6	0.083	354.476140812	 	go	1	0.1
SPC613	2015_May_07_1358	LL-Jerry	PME	cueing_effect	300	1	frame	left	-200	0	False	1	left	-182.218530762	2.16054461538	0.6	0.083	315.192008391	 	go	1	0.1
SPC613	2015_May_07_1358	LL-Jerry	PME	cueing_effect	301	1	frame	right	200	0	False	1	right	210.196028168	18.4842036177	0.6	0.083	275.748951361	 	go	1	0.1
SPC613	2015_May_07_1358	LL-Jerry	PME	cueing_effect	302	1	sound	left			False	1	left	-181.298769976	-16.2886613937	0.6	0.083	303.307496011	 	go	1	0.1
SPC613	2015_May_07_1358	LL-Jerry	PME	cueing_effect	303	0					False	1	left	-191.56332686	-0.270246506246	0.6	0.083	382.890531793	 	go	1	0.1
SPC613	2015_May_07_1358	LL-Jerry	PME	cueing_effect	304	0					False	1	left	-221.138686855	4.49346975235	0.6	0.083	345.439380035	 	go	1	0.1
SPC613	2015_May_07_1358	LL-Jerry	PME	cueing_effect	305	1	frame	left	-200	0	False	1	left	-189.176239853	-17.3148495748	0.6	0.083	295.381702483	 	go	1	0.1
SPC613	2015_May_07_1358	LL-Jerry	PME	cueing_effect	306	0					False	1	right	182.391986335	7.4897778955	0.6	0.083	287.233484909	 	go	1	0.1
SPC613	2015_May_07_1358	LL-Jerry	PME	cueing_effect	307	1	frame	left	-200	0	False	1	left	-201.554523723	-14.3602771538	0.6	0.083	319.751450792	 	go	1	0.1
SPC613	2015_May_07_1358	LL-Jerry	PME	cueing_effect	308	1	frame	left	-200	0	False	1	left	-180.135897467	3.02305751397	0.6	0.083	317.383522168	 	go	1	0.1
SPC613	2015_May_07_1358	LL-Jerry	PME	cueing_effect	309	1	sound	right			False	1	right	200.424319288	-9.48467623956	0.6	0.083	254.252806306	 	go	1	0.1
SPC613	2015_May_07_1358	LL-Jerry	PME	cueing_effect	310	0					False	1	left	-198.393762241	-20.3898959655	0.6	0.083	290.870925412	 	go	1	0.1
SPC613	2015_May_07_1358	LL-Jerry	PME	cueing_effect	311	0					False	1	right	197.825050096	2.01933213735	0.6	0.083	334.468884394	 	go	1	0.1
SPC613	2015_May_07_1358	LL-Jerry	PME	cueing_effect	312	1	sound	right			False	1	right	180.372006563	-2.21115282563	0.6	0.083	303.942063823	 	go	1	0.1
SPC613	2015_May_07_1358	LL-Jerry	PME	cueing_effect	313	1	sound	left			False	0					0.083	1086.96551435		nogo	1	0.1
SPC613	2015_May_07_1358	LL-Jerry	PME	cueing_effect	314	1	sound	right			False	1	right	199.498263515	21.5937987718	0.6	0.083	321.997333318	 	go	1	0.1
SPC613	2015_May_07_1358	LL-Jerry	PME	cueing_effect	315	1	sound	right			False	1	right	196.225097615	5.56735963151	0.6	0.083	337.544379756	 	go	1	0.1
SPC613	2015_May_07_1358	LL-Jerry	PME	cueing_effect	316	1	frame	right	200	0	False	1	right	212.672942507	-16.0515732681	0.6	0.083	320.458255708	 	go	1	0.1
SPC613	2015_May_07_1358	LL-Jerry	PME	cueing_effect	317	1	sound	left			False	0					0.083	1081.31982014		nogo	1	0.1
SPC613	2015_May_07_1358	LL-Jerry	PME	cueing_effect	318	0					False	1	left	-203.962661959	-18.3799835797	0.6	0.083	391.69232361	 	go	1	0.1
SPC613	2015_May_07_1358	LL-Jerry	PME	cueing_effect	319	1	sound	right			False	1	right	215.377912586	10.0314374028	0.6	0.083	294.215226546	 	go	1	0.1
SPC613	2015_May_07_1358	LL-Jerry	PME	cueing_effect	320	1	sound	right			False	1	right	212.240503694	13.4009603604	0.6	0.083	287.774899974	 	go	1	0.1
SPC613	2015_May_07_1358	LL-Jerry	PME	cueing_effect	321	0					False	0					0.083	1079.94195074		nogo	1	0.1
SPC613	2015_May_07_1358	LL-Jerry	PME	cueing_effect	322	0					False	1	left	-189.435498195	0.720821119188	0.6	0.083	445.199619979	 	go	1	0.1
SPC613	2015_May_07_1358	LL-Jerry	PME	cueing_effect	323	1	frame	right	200	0	False	1	right	183.27266455	5.03838299319	0.6	0.083	323.98695685	 	go	1	0.1
SPC613	2015_May_07_1358	LL-Jerry	PME	cueing_effect	324	1	sound	right			False	1	right	177.618043833	-3.62223410048	0.6	0.083	269.561462104	 	go	1	0.1
SPC613	2015_May_07_1358	LL-Jerry	PME	cueing_effect	325	1	frame	right	200	0	False	1	right	180.944169035	-10.120540166	0.6	0.083	299.05031994	 	go	1	0.1
SPC613	2015_May_07_1358	LL-Jerry	PME	cueing_effect	326	0					False	1	right	191.310428049	-16.052516532	0.6	0.083	453.221227974	 	go	1	0.1
SPC613	2015_May_07_1358	LL-Jerry	PME	cueing_effect	327	1	frame	left	-200	0	False	1	left	-204.796013234	-6.79347519189	0.6	0.083	310.029176995	 	go	1	0.1
SPC613	2015_May_07_1358	LL-Jerry	PME	cueing_effect	328	0					False	1	right	199.087669172	19.0186010121	0.6	0.083	371.672142297	 	go	1	0.1
SPC613	2015_May_07_1358	LL-Jerry	PME	cueing_effect	329	0					False	1	left	-218.801867974	5.96219556957	0.6	0.083	474.31473434	 	go	1	0.1
SPC613	2015_May_07_1358	LL-Jerry	PME	cueing_effect	330	1	frame	right	200	0	False	0					0.083	1087.10429072		nogo	1	0.1
SPC613	2015_May_07_1358	LL-Jerry	PME	cueing_effect	331	1	frame	right	200	0	False	0					0.083	1087.14154921		nogo	1	0.1
SPC613	2015_May_07_1358	LL-Jerry	PME	cueing_effect	332	1	frame	left	-200	0	False	1	left	-188.398779809	-10.1627359759	0.6	0.083	376.890104264	 	go	1	0.1
SPC613	2015_May_07_1358	LL-Jerry	PME	cueing_effect	333	1	frame	right	200	0	False	1	right	206.599442748	1.75071720692	0.6	0.083	290.349662304	 	go	1	0.1
SPC613	2015_May_07_1358	LL-Jerry	PME	cueing_effect	334	0					False	1	right	207.069365256	15.4898347464	0.6	0.083	324.589584023	 	go	1	0.1
SPC613	2015_May_07_1358	LL-Jerry	PME	cueing_effect	335	1	frame	right	200	0	False	1	right	218.679223189	14.8923795303	0.6	0.083	324.200633913	 	go	1	0.1
SPC613	2015_May_07_1358	LL-Jerry	PME	cueing_effect	336	1	frame	right	200	0	False	1	right	182.70197011	1.70069095596	0.6	0.083	308.494281024	 	go	1	0.1
SPC613	2015_May_07_1358	LL-Jerry	PME	cueing_effect	337	1	sound	right			False	1	right	201.059019607	20.2318852725	0.6	0.083	339.477730915	 	go	1	0.1
SPC613	2015_May_07_1358	LL-Jerry	PME	cueing_effect	338	0					False	1	left	-222.887217567	-19.9919719338	0.6	0.083	404.065402225	 	go	1	0.1
SPC613	2015_May_07_1358	LL-Jerry	PME	cueing_effect	339	1	sound	right			False	1	right	219.151447126	14.1758128318	0.6	0.083	242.35118553	 	go	1	0.1
SPC613	2015_May_07_1358	LL-Jerry	PME	cueing_effect	340	1	frame	left	-200	0	False	1	left	-184.961939621	4.38456949155	0.6	0.083	282.494584098	 	go	1	0.1
SPC613	2015_May_07_1358	LL-Jerry	PME	cueing_effect	341	1	sound	right			False	1	right	192.070533518	2.44608016671	0.6	0.083	283.585397527	 	go	1	0.1
SPC613	2015_May_07_1358	LL-Jerry	PME	cueing_effect	342	1	frame	right	200	0	False	0					0.083	1079.96666431		nogo	1	0.1
SPC613	2015_May_07_1358	LL-Jerry	PME	cueing_effect	343	1	frame	left	-200	0	False	0					0.083	1080.79095185		nogo	1	0.1
SPC613	2015_May_07_1358	LL-Jerry	PME	cueing_effect	344	1	frame	left	-200	0	False	1	left	-194.931446226	21.0457938838	0.6	0.083	388.742297888	 	go	1	0.1
SPC613	2015_May_07_1358	LL-Jerry	PME	cueing_effect	345	1	sound	left			False	1	left	-195.911416088	5.70572585271	0.6	0.083	320.420615375	 	go	1	0.1
SPC613	2015_May_07_1358	LL-Jerry	PME	cueing_effect	346	1	frame	left	-200	0	False	1	left	-200.581998207	-6.08329758013	0.6	0.083	343.435307965	 	go	1	0.1
SPC613	2015_May_07_1358	LL-Jerry	PME	cueing_effect	347	0					False	0					0.083	1081.24567941		nogo	1	0.1
SPC613	2015_May_07_1358	LL-Jerry	PME	cueing_effect	348	1	frame	left	-200	0	False	1	left	-189.799253717	-6.41903524841	0.6	0.083	377.909818664	 	go	1	0.1
SPC613	2015_May_07_1358	LL-Jerry	PME	cueing_effect	349	0					False	1	right	201.738279051	20.8460626041	0.6	0.083	352.82718204	 	go	1	0.1
SPC613	2015_May_07_1358	LL-Jerry	PME	cueing_effect	350	0					False	1	left	-196.967195582	4.82038019617	0.6	0.083	504.281131551	 	go	1	0.1
SPC613	2015_May_07_1358	LL-Jerry	PME	cueing_effect	351	0					False	1	left	-212.518874985	-0.814865678786	0.6	0.083	337.265688926	 	go	1	0.1
SPC613	2015_May_07_1358	LL-Jerry	PME	cueing_effect	352	1	frame	right	200	0	False	1	right	189.844461271	-0.557630271105	0.6	0.083	362.104613334	 	go	1	0.1
SPC613	2015_May_07_1358	LL-Jerry	PME	cueing_effect	353	0					False	1	left	-209.137825053	-21.0922302235	0.6	0.083	428.894061595	 	go	1	0.1
SPC613	2015_May_07_1358	LL-Jerry	PME	cueing_effect	354	1	frame	right	200	0	False	1	right	208.596871881	-18.0499318322	0.6	0.083	299.353724346	 	go	1	0.1
SPC613	2015_May_07_1358	LL-Jerry	PME	cueing_effect	355	1	sound	left			False	1	left	-193.03528131	-18.6314711593	0.6	0.083	314.228562638	 	go	1	0.1
SPC613	2015_May_07_1358	LL-Jerry	PME	cueing_effect	356	0					False	1	left	-204.096048625	4.58843522097	0.6	0.083	288.599187508	 	go	1	0.1
SPC613	2015_May_07_1358	LL-Jerry	PME	cueing_effect	357	0					False	1	left	-183.790486654	-6.31437701119	0.6	0.083	246.671097353	 	go	1	0.1
SPC613	2015_May_07_1358	LL-Jerry	PME	cueing_effect	358	0					False	1	left	-197.110929352	0.692261737188	0.6	0.083	371.233385056	 	go	1	0.1
SPC613	2015_May_07_1358	LL-Jerry	PME	cueing_effect	359	1	frame	left	-200	0	False	1	left	-194.318751001	-1.27842864664	0.6	0.083	336.889661849	 	go	1	0.1
