subj_id	date	computer	experimenter	part	trial_ix	cue_present	cue_type	cue_loc	cue_pos_x	cue_pos_y	target_present	target_loc	target_pos_x	target_pos_y	target_opacity	rt	key	response	is_correct
SPC1_108	2015_Apr_09_1726	LL-Kramer	PME	practice	0	0					1	left	-179.516882899	3.54023602434	1.0	0.0	y	present	1
SPC1_108	2015_Apr_09_1726	LL-Kramer	PME	practice	1	0					1	right	222.654573788	-0.358073138957	1.0	0.0	y	present	1
SPC1_108	2015_Apr_09_1726	LL-Kramer	PME	practice	2	0					1	left	-198.773573395	-11.768498791	1.0	0.0	y	present	1
SPC1_108	2015_Apr_09_1726	LL-Kramer	PME	practice	3	0					1	left	-198.989601151	1.1018252739	1.0	0.0	y	present	1
SPC1_108	2015_Apr_09_1726	LL-Kramer	PME	practice	4	0					1	right	189.764260653	-18.2285350935	1.0	0.0	y	present	1
SPC1_108	2015_Apr_09_1726	LL-Kramer	PME	practice	5	0					1	left	-197.31941505	-11.3145779979	1.0	0.0	y	present	1
SPC1_108	2015_Apr_09_1726	LL-Kramer	PME	practice	6	0					1	left	-217.249817141	8.3162407138	1.0	0.0	y	present	1
SPC1_108	2015_Apr_09_1726	LL-Kramer	PME	practice	7	0					1	left	-219.046876518	10.3061335371	1.0	0.0	y	present	1
SPC1_108	2015_Apr_09_1726	LL-Kramer	PME	practice	8	0					0					0.0	y	present	0
SPC1_108	2015_Apr_09_1726	LL-Kramer	PME	practice	9	0					1	right	208.988386911	-21.4714064932	1.0	2063.01803933		timeout	0
SPC1_108	2015_Apr_09_1726	LL-Kramer	PME	practice	10	0					1	right	198.82457789	-4.7621922572	1.0	0.0	y	present	1
SPC1_108	2015_Apr_09_1726	LL-Kramer	PME	practice	11	0					1	left	-183.483650297	-3.66619645201	1.0	352.423907258	y	present	1
SPC1_108	2015_Apr_09_1726	LL-Kramer	PME	practice	12	0					1	right	182.458070593	13.7611295775	1.0	0.0	y	present	1
SPC1_108	2015_Apr_09_1726	LL-Kramer	PME	practice	13	0					1	left	-182.624572278	-5.27379246075	1.0	53.1993503682	y	present	1
SPC1_108	2015_Apr_09_1726	LL-Kramer	PME	practice	14	0					1	left	-195.767124946	11.2646781402	1.0	2071.22867927		timeout	0
SPC1_108	2015_Apr_09_1726	LL-Kramer	PME	practice	15	0					1	right	186.185811294	-20.4537314265	1.0	2069.52626863		timeout	0
SPC1_108	2015_Apr_09_1726	LL-Kramer	PME	practice	16	0					1	right	217.375080019	6.64122130915	1.0	2057.52010364		timeout	0
SPC1_108	2015_Apr_09_1726	LL-Kramer	PME	practice	17	0					1	right	207.307429859	-7.66001429746	1.0	933.280407451	y	present	1
SPC1_108	2015_Apr_09_1726	LL-Kramer	PME	practice	18	0					1	left	-198.327692726	-9.26961918958	1.0	1461.56338695	y	present	1
SPC1_108	2015_Apr_09_1726	LL-Kramer	PME	practice	19	0					1	right	203.158562959	12.4169965455	1.0	1124.496656	u	absent	0
SPC1_108	2015_Apr_09_1726	LL-Kramer	PME	calibration	0	0					1	left	-214.467712459	18.6812221985	0.8	811.452784576	u	absent	0
SPC1_108	2015_Apr_09_1726	LL-Kramer	PME	calibration	1	0					1	left	-220.643773167	-11.5999094879	1.0	799.996802583	y	present	1
SPC1_108	2015_Apr_09_1726	LL-Kramer	PME	calibration	2	0					1	right	205.819412908	22.0428825062	1.0	1711.46678273	u	absent	0
SPC1_108	2015_Apr_09_1726	LL-Kramer	PME	calibration	3	0					1	right	212.982901484	-11.0308579771	1.0	823.115036357	y	present	1
SPC1_108	2015_Apr_09_1726	LL-Kramer	PME	calibration	4	0					1	left	-210.473326129	-7.98265221123	1.0	893.910899758	y	present	1
SPC1_108	2015_Apr_09_1726	LL-Kramer	PME	calibration	5	0					1	left	-219.20731528	-19.8636049894	1.0	1002.65226606	y	present	1
SPC1_108	2015_Apr_09_1726	LL-Kramer	PME	calibration	6	0					0					1726.90740321	u	absent	1
SPC1_108	2015_Apr_09_1726	LL-Kramer	PME	calibration	7	0					1	left	-182.266920974	21.2210699977	1.0	1144.57269944	y	present	1
SPC1_108	2015_Apr_09_1726	LL-Kramer	PME	calibration	8	0					1	left	-220.948675425	10.5702295796	0.959493063008	922.884240746	y	present	1
SPC1_108	2015_Apr_09_1726	LL-Kramer	PME	calibration	9	0					1	left	-186.89013938	-16.3398292665	0.920880090041	1214.52437574	u	absent	0
SPC1_108	2015_Apr_09_1726	LL-Kramer	PME	calibration	10	0					1	left	-201.101410848	22.1956500874	0.984600884226	1708.29357719	u	absent	0
SPC1_108	2015_Apr_09_1726	LL-Kramer	PME	calibration	11	0					1	left	-193.936940153	12.9165448782	1.0	1356.16328334	y	present	1
SPC1_108	2015_Apr_09_1726	LL-Kramer	PME	calibration	12	0					1	right	200.905995303	-20.1420793805	1.0	968.892212491	y	present	1
SPC1_108	2015_Apr_09_1726	LL-Kramer	PME	calibration	13	0					1	left	-221.933756647	1.36932168841	0.986101198051	1104.05837325	u	absent	0
SPC1_108	2015_Apr_09_1726	LL-Kramer	PME	calibration	14	0					1	right	217.494174509	-13.1866231386	1.0	797.504014801	y	present	1
SPC1_108	2015_Apr_09_1726	LL-Kramer	PME	calibration	15	0					0					1256.45178836	u	absent	1
SPC1_108	2015_Apr_09_1726	LL-Kramer	PME	calibration	16	0					1	left	-187.621640141	4.54872141368	1.0	826.772138476	y	present	1
SPC1_108	2015_Apr_09_1726	LL-Kramer	PME	calibration	17	0					1	right	178.391417124	0.68346323023	0.98772140458	1317.04683648	u	absent	0
SPC1_108	2015_Apr_09_1726	LL-Kramer	PME	calibration	18	0					0					2062.58951221		timeout	0
SPC1_108	2015_Apr_09_1726	LL-Kramer	PME	calibration	19	0					1	right	214.788933157	-22.6011418394	1.0	927.915825974	y	present	1
SPC1_108	2015_Apr_09_1726	LL-Kramer	PME	calibration	20	0					1	right	188.28149896	-2.14267040263	1.0	652.601049747	y	present	1
SPC1_108	2015_Apr_09_1726	LL-Kramer	PME	calibration	21	0					1	right	220.22012505	9.16308189053	0.986543981228	735.686553642	y	present	1
SPC1_108	2015_Apr_09_1726	LL-Kramer	PME	calibration	22	0					1	right	179.585996111	-4.64172510532	0.963076347983	719.463744666	y	present	1
SPC1_108	2015_Apr_09_1726	LL-Kramer	PME	calibration	23	0					1	right	188.386914119	7.22259796738	0.944785652654	618.746634107	y	present	1
SPC1_108	2015_Apr_09_1726	LL-Kramer	PME	calibration	24	0					1	right	216.060815054	-8.28401944175	0.929638272131	627.374493983	y	present	1
SPC1_108	2015_Apr_09_1726	LL-Kramer	PME	calibration	25	0					1	right	206.467454172	-11.5494166843	0.916682221758	680.143367499	y	present	1
SPC1_108	2015_Apr_09_1726	LL-Kramer	PME	calibration	26	0					1	left	-185.675642961	21.0920138064	0.905306792949	893.82589655	u	absent	0
SPC1_108	2015_Apr_09_1726	LL-Kramer	PME	calibration	27	0					1	left	-186.983449016	-0.0156703142326	0.924486909602	794.465723448	u	absent	0
SPC1_108	2015_Apr_09_1726	LL-Kramer	PME	calibration	28	0					1	left	-187.1095129	14.7567525318	0.945781660401	737.891966943	u	absent	0
SPC1_108	2015_Apr_09_1726	LL-Kramer	PME	calibration	29	0					1	left	-187.637819398	-7.87088702507	0.973782834485	711.421551649	y	present	1
SPC1_108	2015_Apr_09_1726	LL-Kramer	PME	calibration	30	0					1	right	192.880653549	19.5368171112	0.956637551234	852.111772634	y	present	1
SPC1_108	2015_Apr_09_1726	LL-Kramer	PME	calibration	31	0					0					1127.66245333	u	absent	1
SPC1_108	2015_Apr_09_1726	LL-Kramer	PME	calibration	32	0					0					1136.00878743	y	present	0
SPC1_108	2015_Apr_09_1726	LL-Kramer	PME	calibration	33	0					1	right	207.137949406	-11.6082123923	0.942033407577	735.410877038	y	present	1
SPC1_108	2015_Apr_09_1726	LL-Kramer	PME	calibration	34	0					1	left	-203.53440501	-19.3093789856	0.929895565308	855.826973449	y	present	1
SPC1_108	2015_Apr_09_1726	LL-Kramer	PME	calibration	35	0					0					889.05633986	u	absent	1
SPC1_108	2015_Apr_09_1726	LL-Kramer	PME	calibration	36	0					1	right	209.445891335	7.71277366417	0.919381624312	781.401302665	y	present	1
SPC1_108	2015_Apr_09_1726	LL-Kramer	PME	calibration	37	0					1	left	-185.468073743	7.69884742322	0.910077391928	914.291083813	y	present	1
SPC1_108	2015_Apr_09_1726	LL-Kramer	PME	calibration	38	0					1	left	-223.447261806	13.8535776348	0.901892478988	2070.65354055		timeout	0
SPC1_108	2015_Apr_09_1726	LL-Kramer	PME	calibration	39	0					0					1668.68738551	y	present	0
SPC1_108	2015_Apr_09_1726	LL-Kramer	PME	calibration	40	0					1	left	-209.279223003	-8.46537425285	0.915344104001	862.946215086	y	present	1
SPC1_108	2015_Apr_09_1726	LL-Kramer	PME	calibration	41	0					1	right	196.914091741	-17.3014148551	0.906758036119	868.671476375	u	absent	0
SPC1_108	2015_Apr_09_1726	LL-Kramer	PME	calibration	42	0					1	right	179.102009832	-23.9347988754	0.920893341335	1585.83622612	u	absent	0
SPC1_108	2015_Apr_09_1726	LL-Kramer	PME	calibration	43	0					1	right	201.634942675	-0.180534288572	0.936827730789	577.272704337	y	present	1
SPC1_108	2015_Apr_09_1726	LL-Kramer	PME	calibration	44	0					1	right	178.944283757	-8.90757181655	0.9266952734	702.704009134	y	present	1
SPC1_108	2015_Apr_09_1726	LL-Kramer	PME	calibration	45	0					0					883.245294914	u	absent	1
SPC1_108	2015_Apr_09_1726	LL-Kramer	PME	calibration	46	0					1	right	180.71855761	-11.7450491349	0.917765499263	581.320510712	y	present	1
SPC1_108	2015_Apr_09_1726	LL-Kramer	PME	calibration	47	0					1	left	-220.749658601	13.5396183005	0.909792173522	1069.17026825	u	absent	0
SPC1_108	2015_Apr_09_1726	LL-Kramer	PME	calibration	48	0					1	left	-187.238249968	-6.38151918725	0.922777823706	1210.74054856	u	absent	0
SPC1_108	2015_Apr_09_1726	LL-Kramer	PME	calibration	49	0					1	left	-184.901894125	-6.84557031616	0.937220417333	677.188909613	y	present	1
SPC1_108	2015_Apr_09_1726	LL-Kramer	PME	calibration	50	0					0					869.712574873	u	absent	1
SPC1_108	2015_Apr_09_1726	LL-Kramer	PME	calibration	51	0					1	right	194.543297149	-21.9702471783	0.927881767892	695.625709835	y	present	1
SPC1_108	2015_Apr_09_1726	LL-Kramer	PME	calibration	52	0					0					941.71642419	u	absent	1
SPC1_108	2015_Apr_09_1726	LL-Kramer	PME	calibration	53	0					1	right	185.114156084	18.5561223277	0.91959733564	763.596179895	y	present	1
SPC1_108	2015_Apr_09_1726	LL-Kramer	PME	calibration	54	0					1	left	-203.11612456	-16.1235641276	0.912346560639	785.814468749	u	absent	0
SPC1_108	2015_Apr_09_1726	LL-Kramer	PME	calibration	55	0					0					776.793954894	u	absent	1
SPC1_108	2015_Apr_09_1726	LL-Kramer	PME	calibration	56	0					1	left	-185.237231947	-0.88872536138	0.924190234587	868.774416856	u	absent	0
SPC1_108	2015_Apr_09_1726	LL-Kramer	PME	calibration	57	0					1	right	191.694623376	22.8062845492	0.937400679976	660.541472491	y	present	1
SPC1_108	2015_Apr_09_1726	LL-Kramer	PME	calibration	58	0					1	left	-195.3840607	-21.0553113926	0.928747078664	811.091714539	y	present	1
SPC1_108	2015_Apr_09_1726	LL-Kramer	PME	calibration	59	0					1	right	204.779129642	-13.6047093893	0.921118120504	734.923081473	y	present	1
SPC1_108	2015_Apr_09_1726	LL-Kramer	PME	calibration	60	0					0					827.592929825	y	present	0
SPC1_108	2015_Apr_09_1726	LL-Kramer	PME	calibration	61	0					1	right	180.616920917	-10.7276510593	0.914379175801	977.053722832	y	present	1
SPC1_108	2015_Apr_09_1726	LL-Kramer	PME	calibration	62	0					1	right	197.951424351	2.3265012383	0.908199950126	911.064068787	u	absent	0
SPC1_108	2015_Apr_09_1726	LL-Kramer	PME	calibration	63	0					1	left	-204.678432645	-2.19567654407	0.918659232781	1302.42427764	y	present	1
SPC1_108	2015_Apr_09_1726	LL-Kramer	PME	calibration	64	0					0					1243.59012861	u	absent	1
SPC1_108	2015_Apr_09_1726	LL-Kramer	PME	calibration	65	0					0					1418.98558009	u	absent	1
SPC1_108	2015_Apr_09_1726	LL-Kramer	PME	calibration	66	0					1	left	-214.229328229	-16.7555724554	0.912273678925	1110.04644353	u	absent	0
SPC1_108	2015_Apr_09_1726	LL-Kramer	PME	calibration	67	0					1	left	-197.533226523	12.8342488646	0.922617046675	898.136511911	u	absent	0
SPC1_108	2015_Apr_09_1726	LL-Kramer	PME	calibration	68	0					1	left	-212.450192479	4.61760615407	0.93420588416	1010.1723508	u	absent	0
SPC1_108	2015_Apr_09_1726	LL-Kramer	PME	calibration	69	0					1	right	204.358196451	-13.9887330681	0.947215454491	776.63486544	y	present	1
SPC1_108	2015_Apr_09_1726	LL-Kramer	PME	calibration	70	0					1	right	196.774763236	8.82055419169	0.938658046739	1003.84426583	u	absent	0
SPC1_108	2015_Apr_09_1726	LL-Kramer	PME	calibration	71	0					0					1101.99372284	u	absent	1
SPC1_108	2015_Apr_09_1726	LL-Kramer	PME	calibration	72	0					1	right	182.727641702	-7.09217890128	0.95262209862	1294.33997301	y	present	1
SPC1_108	2015_Apr_09_1726	LL-Kramer	PME	calibration	73	0					0					1138.35847285	u	absent	1
SPC1_108	2015_Apr_09_1726	LL-Kramer	PME	calibration	74	0					1	right	201.775907069	10.6972437001	0.944057227138	1102.63202945	u	absent	0
SPC1_108	2015_Apr_09_1726	LL-Kramer	PME	calibration	75	0					1	right	197.960935798	5.53218112128	0.95778902817	1218.91882503	u	absent	0
SPC1_108	2015_Apr_09_1726	LL-Kramer	PME	calibration	76	0					1	left	-206.130742316	15.2625604866	0.974880527914	1177.91553354	u	absent	0
SPC1_108	2015_Apr_09_1726	LL-Kramer	PME	calibration	77	0					1	left	-222.734572801	-11.3595117347	0.994530119313	810.95251115	y	present	1
SPC1_108	2015_Apr_09_1726	LL-Kramer	PME	calibration	78	0					1	right	193.985629739	-8.68241204138	0.981666757393	1037.52321517	y	present	1
SPC1_108	2015_Apr_09_1726	LL-Kramer	PME	calibration	79	0					1	right	215.650559511	-19.4950644716	0.970646904977	677.953161765	y	present	1
SPC1_108	2015_Apr_09_1726	LL-Kramer	PME	calibration	80	0					1	right	189.561887652	-2.17471483396	0.961159637222	766.813447233	y	present	1
SPC1_108	2015_Apr_09_1726	LL-Kramer	PME	calibration	81	0					0					735.654579941	u	absent	1
SPC1_108	2015_Apr_09_1726	LL-Kramer	PME	calibration	82	0					1	right	218.205011526	12.9312868097	0.952897112475	701.752593275	y	present	1
SPC1_108	2015_Apr_09_1726	LL-Kramer	PME	calibration	83	0					1	right	208.670347669	8.96183810064	0.945577121713	736.043334939	y	present	1
SPC1_108	2015_Apr_09_1726	LL-Kramer	PME	calibration	84	0					1	right	178.348700909	-23.2101213566	0.938706709	686.067880131	y	present	1
SPC1_108	2015_Apr_09_1726	LL-Kramer	PME	calibration	85	0					0					861.965944525	u	absent	1
SPC1_108	2015_Apr_09_1726	LL-Kramer	PME	calibration	86	0					1	left	-212.089627262	-10.8414637092	0.932670674222	1043.38534037	y	present	1
SPC1_108	2015_Apr_09_1726	LL-Kramer	PME	calibration	87	0					1	right	212.327760692	18.2291330901	0.927190420081	895.433945116	u	absent	0
SPC1_108	2015_Apr_09_1726	LL-Kramer	PME	calibration	88	0					0					933.527620044	u	absent	1
SPC1_108	2015_Apr_09_1726	LL-Kramer	PME	calibration	89	0					1	right	221.53883124	22.9928074937	0.936573265391	1141.16631867	y	present	1
SPC1_108	2015_Apr_09_1726	LL-Kramer	PME	calibration	90	0					1	left	-214.86571502	16.6584682768	0.930743646084	1141.36050083	u	absent	0
SPC1_108	2015_Apr_09_1726	LL-Kramer	PME	calibration	91	0					1	left	-206.095489088	4.50997133741	0.939990644656	985.525222495	y	present	1
SPC1_108	2015_Apr_09_1726	LL-Kramer	PME	calibration	92	0					1	left	-196.503629361	2.32269090377	0.934338689949	669.036758132	y	present	1
SPC1_108	2015_Apr_09_1726	LL-Kramer	PME	calibration	93	0					0					1226.76449595	u	absent	1
SPC1_108	2015_Apr_09_1726	LL-Kramer	PME	calibration	94	0					1	left	-216.015471742	3.64314657746	0.929036276303	943.663707469	u	absent	0
SPC1_108	2015_Apr_09_1726	LL-Kramer	PME	calibration	95	0					0					1203.44701037	u	absent	1
SPC1_108	2015_Apr_09_1726	LL-Kramer	PME	calibration	96	0					1	left	-222.167510842	-14.8842911237	0.937930575581	1177.77828034	y	present	1
SPC1_108	2015_Apr_09_1726	LL-Kramer	PME	calibration	97	0					1	right	196.112054651	22.0627460018	0.93246946096	1435.76832069	u	absent	0
SPC1_108	2015_Apr_09_1726	LL-Kramer	PME	calibration	98	0					1	left	-211.753534948	-14.120201232	0.941205790405	851.490233094	y	present	1
SPC1_108	2015_Apr_09_1726	LL-Kramer	PME	calibration	99	0					1	left	-210.083819881	22.4832615654	0.935774237113	936.039123684	u	absent	0
SPC1_108	2015_Apr_09_1726	LL-Kramer	PME	calibration	100	0					1	right	203.87676288	12.8845234074	0.945226057269	779.840825126	y	present	1
SPC1_108	2015_Apr_09_1726	LL-Kramer	PME	calibration	101	0					1	left	-206.598730401	-14.5013367912	0.939343859563	1114.40112069	u	absent	0
SPC1_108	2015_Apr_09_1726	LL-Kramer	PME	calibration	102	0					1	right	192.461776555	-6.72140699905	0.948742209477	912.06656443	u	absent	0
SPC1_108	2015_Apr_09_1726	LL-Kramer	PME	calibration	103	0					1	left	-177.558720146	-3.70403444309	0.959294782894	878.138063475	y	present	1
SPC1_108	2015_Apr_09_1726	LL-Kramer	PME	calibration	104	0					1	left	-211.5052106	8.21530502367	0.952806854256	1843.92218804	u	absent	0
SPC1_108	2015_Apr_09_1726	LL-Kramer	PME	calibration	105	0					1	right	194.468624802	17.5022428384	0.963316030821	1127.4901065	u	absent	0
SPC1_108	2015_Apr_09_1726	LL-Kramer	PME	calibration	106	0					0					1264.67763539	u	absent	1
SPC1_108	2015_Apr_09_1726	LL-Kramer	PME	calibration	107	0					1	right	207.649726342	-6.29304957451	0.975265089465	1035.49482767	u	absent	0
SPC1_108	2015_Apr_09_1726	LL-Kramer	PME	calibration	108	0					1	left	-196.096832642	-14.0381689414	0.989984983827	1077.74197822	y	present	1
SPC1_108	2015_Apr_09_1726	LL-Kramer	PME	calibration	109	0					1	left	-217.781491755	-3.48599627254	0.980910481677	1172.85002442	u	absent	0
SPC1_108	2015_Apr_09_1726	LL-Kramer	PME	calibration	110	0					1	right	213.210149922	-8.20843253736	0.995742832903	1299.757584	y	present	1
SPC1_108	2015_Apr_09_1726	LL-Kramer	PME	calibration	111	0					0					994.390936103	u	absent	1
SPC1_108	2015_Apr_09_1726	LL-Kramer	PME	calibration	112	0					1	left	-222.040100544	17.917838962	0.986135713994	1188.94298887	u	absent	0
SPC1_108	2015_Apr_09_1726	LL-Kramer	PME	calibration	113	0					1	left	-195.733697993	-2.50589462134	1.0	1036.01888614	u	absent	0
SPC1_108	2015_Apr_09_1726	LL-Kramer	PME	calibration	114	0					1	left	-220.655783526	-11.764377093	1.0	1173.35965578	u	absent	0
SPC1_108	2015_Apr_09_1726	LL-Kramer	PME	calibration	115	0					1	left	-213.061950252	-1.75842203779	1.0	987.610149197	y	present	1
SPC1_108	2015_Apr_09_1726	LL-Kramer	PME	calibration	116	0					1	right	182.414121878	-15.1663087	1.0	858.563463669	y	present	1
SPC1_108	2015_Apr_09_1726	LL-Kramer	PME	calibration	117	0					1	right	184.09751299	-23.5936375726	1.0	910.768116359	y	present	1
SPC1_108	2015_Apr_09_1726	LL-Kramer	PME	calibration	118	0					1	right	177.195970203	6.93819101897	1.0	1093.54561847	y	present	1
SPC1_108	2015_Apr_09_1726	LL-Kramer	PME	calibration	119	0					1	right	178.762145576	14.9686128555	0.996962875943	836.345955264	y	present	1
SPC1_108	2015_Apr_09_1726	LL-Kramer	PME	cueing_effect	0	0					1	left	-206.501857401	-3.39151510703	0.988517533893	977.957957424	y	present	1
SPC1_108	2015_Apr_09_1726	LL-Kramer	PME	cueing_effect	1	1	dot	right	183.582912386	-8.55469998594	1	right	183.582912386	-8.55469998594	0.988517533893	900.128636044	y	present	1
SPC1_108	2015_Apr_09_1726	LL-Kramer	PME	cueing_effect	2	0					0					927.88658198	u	absent	1
SPC1_108	2015_Apr_09_1726	LL-Kramer	PME	cueing_effect	3	0					1	left	-215.657348755	15.7289296891	0.988517533893	1053.77721833	u	absent	0
SPC1_108	2015_Apr_09_1726	LL-Kramer	PME	cueing_effect	4	0					0					1377.3755664	u	absent	1
SPC1_108	2015_Apr_09_1726	LL-Kramer	PME	cueing_effect	5	0					1	right	212.28179889	19.4627369891	0.988517533893	1450.00914345	u	absent	0
SPC1_108	2015_Apr_09_1726	LL-Kramer	PME	cueing_effect	6	1	dot	left	-213.187669624	13.296376385	1	left	-213.187669624	13.296376385	0.988517533893	1760.42453432	u	absent	0
SPC1_108	2015_Apr_09_1726	LL-Kramer	PME	cueing_effect	7	1	dot	right	200	0	0					1235.59589637	u	absent	1
SPC1_108	2015_Apr_09_1726	LL-Kramer	PME	cueing_effect	8	0					0					1810.32395316	u	absent	1
SPC1_108	2015_Apr_09_1726	LL-Kramer	PME	cueing_effect	9	1	dot	right	200	0	0					2070.71943814		timeout	0
SPC1_108	2015_Apr_09_1726	LL-Kramer	PME	cueing_effect	10	0					1	right	210.761234967	-0.162588462912	0.988517533893	1112.78800294	u	absent	0
SPC1_108	2015_Apr_09_1726	LL-Kramer	PME	cueing_effect	11	1	dot	left	-200	0	0					929.672046099	u	absent	1
SPC1_108	2015_Apr_09_1726	LL-Kramer	PME	cueing_effect	12	0					1	right	218.372537742	16.1290555986	0.988517533893	810.851521324	u	absent	0
SPC1_108	2015_Apr_09_1726	LL-Kramer	PME	cueing_effect	13	0					1	left	-215.060250509	-14.1157536375	0.988517533893	886.105781421	u	absent	0
SPC1_108	2015_Apr_09_1726	LL-Kramer	PME	cueing_effect	14	1	dot	left	-196.429641595	-9.4684109847	1	left	-196.429641595	-9.4684109847	0.988517533893	952.282208484	u	absent	0
SPC1_108	2015_Apr_09_1726	LL-Kramer	PME	cueing_effect	15	0					1	left	-220.380269358	-2.50342923121	0.988517533893	1001.60219986	u	absent	0
SPC1_108	2015_Apr_09_1726	LL-Kramer	PME	cueing_effect	16	1	dot	left	-220.538274186	-2.80739150133	1	left	-220.538274186	-2.80739150133	0.988517533893	1052.71623377	y	present	1
SPC1_108	2015_Apr_09_1726	LL-Kramer	PME	cueing_effect	17	0					1	right	201.258517346	-8.41038576288	0.988517533893	965.066273697	u	absent	0
SPC1_108	2015_Apr_09_1726	LL-Kramer	PME	cueing_effect	18	1	dot	right	200	0	0					877.661576029	u	absent	1
SPC1_108	2015_Apr_09_1726	LL-Kramer	PME	cueing_effect	19	0					0					560.619418509	u	absent	1
SPC1_108	2015_Apr_09_1726	LL-Kramer	PME	cueing_effect	20	1	dot	right	200.737037065	20.8292549696	1	right	200.737037065	20.8292549696	0.988517533893	902.462334372	y	present	1
SPC1_108	2015_Apr_09_1726	LL-Kramer	PME	cueing_effect	21	1	dot	right	216.57066291	19.759528377	1	right	216.57066291	19.759528377	0.988517533893	810.265854467	u	absent	0
SPC1_108	2015_Apr_09_1726	LL-Kramer	PME	cueing_effect	22	1	dot	right	207.835532423	-21.4043656314	1	right	207.835532423	-21.4043656314	0.988517533893	930.970104877	u	absent	0
SPC1_108	2015_Apr_09_1726	LL-Kramer	PME	cueing_effect	23	1	dot	right	191.241470901	8.66974485969	1	right	191.241470901	8.66974485969	0.988517533893	672.362033743	y	present	1
SPC1_108	2015_Apr_09_1726	LL-Kramer	PME	cueing_effect	24	0					1	left	-223.714485663	-13.5601097831	0.988517533893	1717.80305635	u	absent	0
SPC1_108	2015_Apr_09_1726	LL-Kramer	PME	cueing_effect	25	0					1	left	-194.788603683	4.36641985887	0.988517533893	1269.40235076	u	absent	0
SPC1_108	2015_Apr_09_1726	LL-Kramer	PME	cueing_effect	26	1	dot	right	183.859093655	15.5785455862	1	right	183.859093655	15.5785455862	0.988517533893	969.013479073	u	absent	0
SPC1_108	2015_Apr_09_1726	LL-Kramer	PME	cueing_effect	27	0					1	right	190.345851481	2.38280236146	0.988517533893	772.644768003	y	present	1
SPC1_108	2015_Apr_09_1726	LL-Kramer	PME	cueing_effect	28	1	dot	right	201.962890655	-22.41670078	1	right	201.962890655	-22.41670078	0.988517533893	911.137375049	u	absent	0
SPC1_108	2015_Apr_09_1726	LL-Kramer	PME	cueing_effect	29	1	dot	right	198.495009313	-18.5231641031	1	right	198.495009313	-18.5231641031	0.988517533893	860.639421735	u	absent	0
SPC1_108	2015_Apr_09_1726	LL-Kramer	PME	cueing_effect	30	0					1	right	187.63839649	0.0623786954719	0.988517533893	704.186112154	y	present	1
SPC1_108	2015_Apr_09_1726	LL-Kramer	PME	cueing_effect	31	0					1	right	205.772448827	-14.2238973126	0.988517533893	877.557465807	y	present	1
SPC1_108	2015_Apr_09_1726	LL-Kramer	PME	cueing_effect	32	0					0					811.011000071	u	absent	1
SPC1_108	2015_Apr_09_1726	LL-Kramer	PME	cueing_effect	33	0					1	left	-196.721687	-11.8855776824	0.988517533893	944.410413038	y	present	1
SPC1_108	2015_Apr_09_1726	LL-Kramer	PME	cueing_effect	34	0					1	left	-182.615321019	-22.6646635843	0.988517533893	736.00122286	u	absent	0
SPC1_108	2015_Apr_09_1726	LL-Kramer	PME	cueing_effect	35	0					1	right	195.02716292	22.8283013069	0.988517533893	735.320414882	u	absent	0
SPC1_108	2015_Apr_09_1726	LL-Kramer	PME	cueing_effect	36	0					1	right	187.328378272	-16.0362080407	0.988517533893	577.521475963	y	present	1
SPC1_108	2015_Apr_09_1726	LL-Kramer	PME	cueing_effect	37	1	dot	right	221.226238424	1.60644989403	1	right	221.226238424	1.60644989403	0.988517533893	944.136295933	u	absent	0
SPC1_108	2015_Apr_09_1726	LL-Kramer	PME	cueing_effect	38	0					1	left	-216.842867096	17.1429843962	0.988517533893	893.821997102	u	absent	0
SPC1_108	2015_Apr_09_1726	LL-Kramer	PME	cueing_effect	39	1	dot	right	176.964714742	11.4707962373	1	right	176.964714742	11.4707962373	0.988517533893	910.804379266	u	absent	0
SPC1_108	2015_Apr_09_1726	LL-Kramer	PME	cueing_effect	40	0					1	left	-213.789496073	21.5101723502	0.988517533893	768.835595809	u	absent	0
SPC1_108	2015_Apr_09_1726	LL-Kramer	PME	cueing_effect	41	1	dot	left	-221.045844625	-1.327635859	1	left	-221.045844625	-1.327635859	0.988517533893	841.792810708	u	absent	0
SPC1_108	2015_Apr_09_1726	LL-Kramer	PME	cueing_effect	42	0					1	right	204.844076811	7.30744234955	0.988517533893	877.475971822	u	absent	0
SPC1_108	2015_Apr_09_1726	LL-Kramer	PME	cueing_effect	43	1	dot	left	-189.456215731	-19.6374829446	1	left	-189.456215731	-19.6374829446	0.988517533893	1238.00796922	y	present	1
SPC1_108	2015_Apr_09_1726	LL-Kramer	PME	cueing_effect	44	0					1	right	198.888244799	-18.8224555909	0.988517533893	877.161302604	y	present	1
SPC1_108	2015_Apr_09_1726	LL-Kramer	PME	cueing_effect	45	0					1	left	-182.202103184	21.0678318683	0.988517533893	926.860690583	u	absent	0
SPC1_108	2015_Apr_09_1726	LL-Kramer	PME	cueing_effect	46	0					0					864.835789427	u	absent	1
SPC1_108	2015_Apr_09_1726	LL-Kramer	PME	cueing_effect	47	1	dot	right	194.248740384	19.886777688	1	right	194.248740384	19.886777688	0.988517533893	935.122410767	y	present	1
SPC1_108	2015_Apr_09_1726	LL-Kramer	PME	cueing_effect	48	1	dot	right	191.372414218	21.4529446386	1	right	191.372414218	21.4529446386	0.988517533893	993.701159488	y	present	1
SPC1_108	2015_Apr_09_1726	LL-Kramer	PME	cueing_effect	49	1	dot	left	-203.745505396	20.7807625901	1	left	-203.745505396	20.7807625901	0.988517533893	896.078100428	y	present	1
SPC1_108	2015_Apr_09_1726	LL-Kramer	PME	cueing_effect	50	0					1	right	211.14955999	-20.1108941154	0.988517533893	1381.13287883	u	absent	0
SPC1_108	2015_Apr_09_1726	LL-Kramer	PME	cueing_effect	51	1	dot	right	215.437886458	-16.9663068233	1	right	215.437886458	-16.9663068233	0.988517533893	953.873880673	y	present	1
SPC1_108	2015_Apr_09_1726	LL-Kramer	PME	cueing_effect	52	0					1	left	-216.037430807	6.37349058468	0.988517533893	1352.22075647	u	absent	0
SPC1_108	2015_Apr_09_1726	LL-Kramer	PME	cueing_effect	53	1	dot	left	-199.557988686	-21.5766694765	1	left	-199.557988686	-21.5766694765	0.988517533893	902.914646547	y	present	1
SPC1_108	2015_Apr_09_1726	LL-Kramer	PME	cueing_effect	54	0					1	right	216.96390994	-21.2477251112	0.988517533893	1112.468265	u	absent	0
SPC1_108	2015_Apr_09_1726	LL-Kramer	PME	cueing_effect	55	1	dot	right	200	0	0					962.597661652	u	absent	1
SPC1_108	2015_Apr_09_1726	LL-Kramer	PME	cueing_effect	56	0					1	right	189.218022517	19.512214174	0.988517533893	1227.3415844	u	absent	0
SPC1_108	2015_Apr_09_1726	LL-Kramer	PME	cueing_effect	57	1	dot	right	220.221547014	-19.0798012029	1	right	220.221547014	-19.0798012029	0.988517533893	1094.50327326	y	present	1
SPC1_108	2015_Apr_09_1726	LL-Kramer	PME	cueing_effect	58	1	dot	right	219.148942796	-17.4596583751	1	right	219.148942796	-17.4596583751	0.988517533893	981.667699292	y	present	1
SPC1_108	2015_Apr_09_1726	LL-Kramer	PME	cueing_effect	59	0					1	right	178.154408592	-1.13764300345	0.988517533893	869.464583229	y	present	1
SPC1_108	2015_Apr_09_1726	LL-Kramer	PME	cueing_effect	60	0					1	right	194.144385418	-0.0815740093092	0.988517533893	1119.29935217	u	absent	0
SPC1_108	2015_Apr_09_1726	LL-Kramer	PME	cueing_effect	61	0					1	left	-212.094396488	-12.6339049274	0.988517533893	874.602228403	u	absent	0
SPC1_108	2015_Apr_09_1726	LL-Kramer	PME	cueing_effect	62	1	dot	right	193.685937818	-12.2900303215	1	right	193.685937818	-12.2900303215	0.988517533893	948.098318651	y	present	1
SPC1_108	2015_Apr_09_1726	LL-Kramer	PME	cueing_effect	63	0					0					1438.94035695	u	absent	1
SPC1_108	2015_Apr_09_1726	LL-Kramer	PME	cueing_effect	64	0					0					993.965138216	u	absent	1
SPC1_108	2015_Apr_09_1726	LL-Kramer	PME	cueing_effect	65	0					1	left	-177.404431443	-11.6279698222	0.988517533893	817.462300882	y	present	1
SPC1_108	2015_Apr_09_1726	LL-Kramer	PME	cueing_effect	66	0					1	left	-212.169422	1.51258855632	0.988517533893	877.145705745	u	absent	0
SPC1_108	2015_Apr_09_1726	LL-Kramer	PME	cueing_effect	67	1	dot	right	184.013757954	-14.6506457248	1	right	184.013757954	-14.6506457248	0.988517533893	968.724155333	y	present	1
SPC1_108	2015_Apr_09_1726	LL-Kramer	PME	cueing_effect	68	0					0					860.354387201	u	absent	1
SPC1_108	2015_Apr_09_1726	LL-Kramer	PME	cueing_effect	69	0					1	right	218.69739143	3.6374104849	0.988517533893	877.903328743	u	absent	0
SPC1_108	2015_Apr_09_1726	LL-Kramer	PME	cueing_effect	70	0					0					902.549677063	u	absent	1
SPC1_108	2015_Apr_09_1726	LL-Kramer	PME	cueing_effect	71	1	dot	right	198.346420001	-20.252232309	1	right	198.346420001	-20.252232309	0.988517533893	791.950320825	y	present	1
SPC1_108	2015_Apr_09_1726	LL-Kramer	PME	cueing_effect	72	0					1	left	-212.480998683	-21.2236192067	0.988517533893	904.339820612	y	present	1
SPC1_108	2015_Apr_09_1726	LL-Kramer	PME	cueing_effect	73	0					1	left	-213.769007803	2.63097747859	0.988517533893	877.114901785	u	absent	0
SPC1_108	2015_Apr_09_1726	LL-Kramer	PME	cueing_effect	74	1	dot	right	203.176666259	7.26936578295	1	right	203.176666259	7.26936578295	0.988517533893	846.60174977	y	present	1
SPC1_108	2015_Apr_09_1726	LL-Kramer	PME	cueing_effect	75	1	dot	left	-203.434941955	15.6942153498	1	left	-203.434941955	15.6942153498	0.988517533893	1093.79634028	u	absent	0
SPC1_108	2015_Apr_09_1726	LL-Kramer	PME	cueing_effect	76	0					1	right	192.483430778	7.27872644466	0.988517533893	858.425819781	y	present	1
SPC1_108	2015_Apr_09_1726	LL-Kramer	PME	cueing_effect	77	1	dot	right	216.571110523	17.541216074	1	right	216.571110523	17.541216074	0.988517533893	979.01972197	u	absent	0
SPC1_108	2015_Apr_09_1726	LL-Kramer	PME	cueing_effect	78	0					1	left	-178.412536569	-6.39424589347	0.988517533893	997.904155869	u	absent	0
SPC1_108	2015_Apr_09_1726	LL-Kramer	PME	cueing_effect	79	0					1	left	-195.94141228	-10.2355988027	0.988517533893	806.017236784	u	absent	0
SPC1_108	2015_Apr_09_1726	LL-Kramer	PME	cueing_effect	80	0					1	left	-203.318735809	16.84630022	0.988517533893	1427.84271576	u	absent	0
SPC1_108	2015_Apr_09_1726	LL-Kramer	PME	cueing_effect	81	0					1	left	-193.898246038	-14.5176120551	0.988517533893	719.597098883	u	absent	0
SPC1_108	2015_Apr_09_1726	LL-Kramer	PME	cueing_effect	82	0					1	left	-199.791273695	-14.0115262844	0.988517533893	775.561403483	y	present	1
SPC1_108	2015_Apr_09_1726	LL-Kramer	PME	cueing_effect	83	0					1	right	203.50922772	-11.3450378031	0.988517533893	1037.54115151	u	absent	0
SPC1_108	2015_Apr_09_1726	LL-Kramer	PME	cueing_effect	84	0					0					1002.03891518	u	absent	1
SPC1_108	2015_Apr_09_1726	LL-Kramer	PME	cueing_effect	85	1	dot	left	-187.919016575	-22.8385076608	1	left	-187.919016575	-22.8385076608	0.988517533893	1117.05728667	u	absent	0
SPC1_108	2015_Apr_09_1726	LL-Kramer	PME	cueing_effect	86	1	dot	left	-184.698632814	12.7268816795	1	left	-184.698632814	12.7268816795	0.988517533893	927.252174821	u	absent	0
SPC1_108	2015_Apr_09_1726	LL-Kramer	PME	cueing_effect	87	1	dot	left	-196.130743848	-21.1018760305	1	left	-196.130743848	-21.1018760305	0.988517533893	1102.8219224	u	absent	0
SPC1_108	2015_Apr_09_1726	LL-Kramer	PME	cueing_effect	88	0					1	right	193.58392207	13.4104222002	0.988517533893	852.543419227	y	present	1
SPC1_108	2015_Apr_09_1726	LL-Kramer	PME	cueing_effect	89	1	dot	left	-194.868635011	-20.6133635095	1	left	-194.868635011	-20.6133635095	0.988517533893	1104.50756643	u	absent	0
SPC1_108	2015_Apr_09_1726	LL-Kramer	PME	cueing_effect	90	0					1	right	186.360666208	-0.497934508921	0.988517533893	968.714797404	y	present	1
SPC1_108	2015_Apr_09_1726	LL-Kramer	PME	cueing_effect	91	0					1	right	177.490053205	-19.853681331	0.988517533893	871.544440277	y	present	1
SPC1_108	2015_Apr_09_1726	LL-Kramer	PME	cueing_effect	92	0					1	left	-216.556598111	-5.37586934246	0.988517533893	919.248973951	u	absent	0
SPC1_108	2015_Apr_09_1726	LL-Kramer	PME	cueing_effect	93	1	dot	right	222.097496276	12.439404222	1	right	222.097496276	12.439404222	0.988517533893	1094.26931851	u	absent	0
SPC1_108	2015_Apr_09_1726	LL-Kramer	PME	cueing_effect	94	0					1	right	181.198192058	-9.05742821244	0.988517533893	760.788333602	y	present	1
SPC1_108	2015_Apr_09_1726	LL-Kramer	PME	cueing_effect	95	1	dot	left	-180.264465149	-10.40689695	1	left	-180.264465149	-10.40689695	0.988517533893	773.481546436	u	absent	0
SPC1_108	2015_Apr_09_1726	LL-Kramer	PME	cueing_effect	96	1	dot	left	-199.08095429	-12.1763162007	1	left	-199.08095429	-12.1763162007	0.988517533893	1027.22062962	u	absent	0
SPC1_108	2015_Apr_09_1726	LL-Kramer	PME	cueing_effect	97	0					1	left	-193.181065657	-9.58476268358	0.988517533893	836.133446079	y	present	1
SPC1_108	2015_Apr_09_1726	LL-Kramer	PME	cueing_effect	98	0					0					810.794592369	u	absent	1
SPC1_108	2015_Apr_09_1726	LL-Kramer	PME	cueing_effect	99	0					0					1177.42617847	u	absent	1
SPC1_108	2015_Apr_09_1726	LL-Kramer	PME	cueing_effect	100	0					1	left	-219.791981753	13.060094327	0.988517533893	1283.45016111	u	absent	0
SPC1_108	2015_Apr_09_1726	LL-Kramer	PME	cueing_effect	101	1	dot	left	-199.140436628	0.555665615278	1	left	-199.140436628	0.555665615278	0.988517533893	1371.23854412	u	absent	0
SPC1_108	2015_Apr_09_1726	LL-Kramer	PME	cueing_effect	102	1	dot	left	-220.813227948	19.0286801548	1	left	-220.813227948	19.0286801548	0.988517533893	1136.31994743	u	absent	0
SPC1_108	2015_Apr_09_1726	LL-Kramer	PME	cueing_effect	103	1	dot	right	214.300089998	21.816683738	1	right	214.300089998	21.816683738	0.988517533893	1297.92610882	u	absent	0
SPC1_108	2015_Apr_09_1726	LL-Kramer	PME	cueing_effect	104	0					1	right	209.87618366	7.039807838	0.988517533893	1352.21802723	u	absent	0
SPC1_108	2015_Apr_09_1726	LL-Kramer	PME	cueing_effect	105	0					0					1544.42507401	u	absent	1
SPC1_108	2015_Apr_09_1726	LL-Kramer	PME	cueing_effect	106	1	dot	left	-214.089299571	0.934709139125	1	left	-214.089299571	0.934709139125	0.988517533893	952.633920591	y	present	1
SPC1_108	2015_Apr_09_1726	LL-Kramer	PME	cueing_effect	107	0					1	right	222.776430094	15.0175697327	0.988517533893	1175.20477856	u	absent	0
SPC1_108	2015_Apr_09_1726	LL-Kramer	PME	cueing_effect	108	0					1	right	212.688578075	16.0418979953	0.988517533893	1141.50984213	u	absent	0
SPC1_108	2015_Apr_09_1726	LL-Kramer	PME	cueing_effect	109	1	dot	left	-200	0	0					1036.66733112	u	absent	1
SPC1_108	2015_Apr_09_1726	LL-Kramer	PME	cueing_effect	110	0					0					1853.86175383	u	absent	1
SPC1_108	2015_Apr_09_1726	LL-Kramer	PME	cueing_effect	111	0					0					1235.9788022	u	absent	1
SPC1_108	2015_Apr_09_1726	LL-Kramer	PME	cueing_effect	112	1	dot	right	190.287828275	7.76510505818	1	right	190.287828275	7.76510505818	0.988517533893	644.241848029	y	present	1
SPC1_108	2015_Apr_09_1726	LL-Kramer	PME	cueing_effect	113	1	dot	right	200	0	0					1002.27403967	u	absent	1
SPC1_108	2015_Apr_09_1726	LL-Kramer	PME	cueing_effect	114	0					1	left	-223.402207591	-21.1753606017	0.988517533893	894.191645551	u	absent	0
SPC1_108	2015_Apr_09_1726	LL-Kramer	PME	cueing_effect	115	1	dot	left	-200	0	0					1161.13786213	u	absent	1
SPC1_108	2015_Apr_09_1726	LL-Kramer	PME	cueing_effect	116	0					1	left	-189.332286382	1.20566268964	0.988517533893	1119.33327606	u	absent	0
SPC1_108	2015_Apr_09_1726	LL-Kramer	PME	cueing_effect	117	0					1	right	183.220697652	14.6595631095	0.988517533893	727.167093195	y	present	1
SPC1_108	2015_Apr_09_1726	LL-Kramer	PME	cueing_effect	118	1	dot	left	-178.442007979	-2.70743260512	1	left	-178.442007979	-2.70743260512	0.988517533893	1287.53501037	u	absent	0
SPC1_108	2015_Apr_09_1726	LL-Kramer	PME	cueing_effect	119	0					1	right	198.053057717	-11.0460114521	0.988517533893	1277.70969272	u	absent	0
SPC1_108	2015_Apr_09_1726	LL-Kramer	PME	cueing_effect	120	1	dot	right	203.377872237	2.48965597643	1	right	203.377872237	2.48965597643	0.988517533893	910.43200111	y	present	1
SPC1_108	2015_Apr_09_1726	LL-Kramer	PME	cueing_effect	121	0					1	left	-183.452478062	-13.7591527395	0.988517533893	911.054321099	y	present	1
SPC1_108	2015_Apr_09_1726	LL-Kramer	PME	cueing_effect	122	1	dot	right	219.508181744	-9.03698105322	1	right	219.508181744	-9.03698105322	0.988517533893	1031.79405443	u	absent	0
SPC1_108	2015_Apr_09_1726	LL-Kramer	PME	cueing_effect	123	0					0					1139.39996064	u	absent	1
SPC1_108	2015_Apr_09_1726	LL-Kramer	PME	cueing_effect	124	1	dot	left	-194.630985528	-9.61921745803	1	left	-194.630985528	-9.61921745803	0.988517533893	1006.53942395	y	present	1
SPC1_108	2015_Apr_09_1726	LL-Kramer	PME	cueing_effect	125	1	dot	right	200	0	0					1069.49390518	u	absent	1
SPC1_108	2015_Apr_09_1726	LL-Kramer	PME	cueing_effect	126	0					1	left	-220.498990335	8.81663001902	0.988517533893	1114.48729411	u	absent	0
SPC1_108	2015_Apr_09_1726	LL-Kramer	PME	cueing_effect	127	1	dot	left	-201.756458109	-9.87393747196	1	left	-201.756458109	-9.87393747196	0.988517533893	1102.86013503	u	absent	0
SPC1_108	2015_Apr_09_1726	LL-Kramer	PME	cueing_effect	128	0					1	right	207.654250407	-10.6338016529	0.988517533893	1293.49539662	u	absent	0
SPC1_108	2015_Apr_09_1726	LL-Kramer	PME	cueing_effect	129	1	dot	right	185.775406287	-11.8755509538	1	right	185.775406287	-11.8755509538	0.988517533893	1360.81118323	u	absent	0
SPC1_108	2015_Apr_09_1726	LL-Kramer	PME	cueing_effect	130	0					1	left	-201.364524171	5.58577603139	0.988517533893	1395.92505526	u	absent	0
SPC1_108	2015_Apr_09_1726	LL-Kramer	PME	cueing_effect	131	0					1	left	-214.842255279	21.2949980465	0.988517533893	1502.47192662	u	absent	0
SPC1_108	2015_Apr_09_1726	LL-Kramer	PME	cueing_effect	132	1	dot	left	-212.160073663	-13.1338931335	1	left	-212.160073663	-13.1338931335	0.988517533893	1581.57045208	u	absent	0
SPC1_108	2015_Apr_09_1726	LL-Kramer	PME	cueing_effect	133	0					1	right	203.527776069	-16.8825032205	0.988517533893	1060.28661784	y	present	1
SPC1_108	2015_Apr_09_1726	LL-Kramer	PME	cueing_effect	134	1	dot	right	202.169122427	4.64596664686	1	right	202.169122427	4.64596664686	0.988517533893	1526.74628654	u	absent	0
SPC1_108	2015_Apr_09_1726	LL-Kramer	PME	cueing_effect	135	0					1	left	-202.454818362	-18.3935684006	0.988517533893	1166.30280251	u	absent	0
SPC1_108	2015_Apr_09_1726	LL-Kramer	PME	cueing_effect	136	0					1	right	190.73213243	16.1698064329	0.988517533893	1727.10860474	y	present	1
SPC1_108	2015_Apr_09_1726	LL-Kramer	PME	cueing_effect	137	0					1	left	-187.166514155	17.6834274775	0.988517533893	1266.86316263	u	absent	0
SPC1_108	2015_Apr_09_1726	LL-Kramer	PME	cueing_effect	138	0					1	left	-191.975341292	-8.32364023519	0.988517533893	1176.6280029	u	absent	0
SPC1_108	2015_Apr_09_1726	LL-Kramer	PME	cueing_effect	139	0					1	right	219.467488519	-10.0538714618	0.988517533893	1452.60019181	y	present	1
SPC1_108	2015_Apr_09_1726	LL-Kramer	PME	cueing_effect	140	1	dot	left	-185.034562129	8.65300929079	1	left	-185.034562129	8.65300929079	0.988517533893	1152.58174855	u	absent	0
SPC1_108	2015_Apr_09_1726	LL-Kramer	PME	cueing_effect	141	1	dot	left	-216.648007476	-19.7776685654	1	left	-216.648007476	-19.7776685654	0.988517533893	1004.12501162	u	absent	0
SPC1_108	2015_Apr_09_1726	LL-Kramer	PME	cueing_effect	142	0					1	right	207.98369974	4.92363210711	0.988517533893	1070.46715682	y	present	1
SPC1_108	2015_Apr_09_1726	LL-Kramer	PME	cueing_effect	143	1	dot	right	200	0	0					1048.4122471	u	absent	1
SPC1_108	2015_Apr_09_1726	LL-Kramer	PME	cueing_effect	144	1	dot	right	200	0	0					862.433854025	u	absent	1
SPC1_108	2015_Apr_09_1726	LL-Kramer	PME	cueing_effect	145	1	dot	right	192.985854283	-3.35712128774	1	right	192.985854283	-3.35712128774	0.988517533893	1208.62793736	y	present	1
SPC1_108	2015_Apr_09_1726	LL-Kramer	PME	cueing_effect	146	0					1	right	211.843439988	8.64330507813	0.988517533893	986.02705542	u	absent	0
SPC1_108	2015_Apr_09_1726	LL-Kramer	PME	cueing_effect	147	0					1	left	-182.607317557	-11.4702306673	0.988517533893	956.555391196	u	absent	0
SPC1_108	2015_Apr_09_1726	LL-Kramer	PME	cueing_effect	148	1	dot	right	200.717859472	14.8725341485	1	right	200.717859472	14.8725341485	0.988517533893	969.398724847	u	absent	0
SPC1_108	2015_Apr_09_1726	LL-Kramer	PME	cueing_effect	149	1	dot	right	196.752462078	-14.2768392438	1	right	196.752462078	-14.2768392438	0.988517533893	1061.2212671	u	absent	0
SPC1_108	2015_Apr_09_1726	LL-Kramer	PME	cueing_effect	150	0					1	right	205.748516501	-10.1117251628	0.988517533893	1120.27611351	u	absent	0
SPC1_108	2015_Apr_09_1726	LL-Kramer	PME	cueing_effect	151	1	dot	right	196.181647636	-10.2769033064	1	right	196.181647636	-10.2769033064	0.988517533893	974.763305858	y	present	1
SPC1_108	2015_Apr_09_1726	LL-Kramer	PME	cueing_effect	152	0					0					1153.38343335	u	absent	1
SPC1_108	2015_Apr_09_1726	LL-Kramer	PME	cueing_effect	153	1	dot	left	-201.705466508	14.688662185	1	left	-201.705466508	14.688662185	0.988517533893	1286.11646499	y	present	1
SPC1_108	2015_Apr_09_1726	LL-Kramer	PME	cueing_effect	154	1	dot	right	222.527952543	17.0609687032	1	right	222.527952543	17.0609687032	0.988517533893	961.29141422	u	absent	0
SPC1_108	2015_Apr_09_1726	LL-Kramer	PME	cueing_effect	155	1	dot	right	208.842699663	8.93351752568	1	right	208.842699663	8.93351752568	0.988517533893	971.029778942	y	present	1
SPC1_108	2015_Apr_09_1726	LL-Kramer	PME	cueing_effect	156	0					1	left	-211.351791991	8.45375395634	0.988517533893	825.469401199	y	present	1
SPC1_108	2015_Apr_09_1726	LL-Kramer	PME	cueing_effect	157	1	dot	left	-200	0	0					1002.77743256	y	present	0
SPC1_108	2015_Apr_09_1726	LL-Kramer	PME	cueing_effect	158	0					1	right	181.693780084	17.0971899422	0.988517533893	511.411335785	y	present	1
SPC1_108	2015_Apr_09_1726	LL-Kramer	PME	cueing_effect	159	0					1	left	-213.710074569	-2.62853809134	0.988517533893	1402.75926189	u	absent	0
SPC1_108	2015_Apr_09_1726	LL-Kramer	PME	cueing_effect	160	0					1	right	203.208550317	-9.37589861223	0.988517533893	1164.75207265	u	absent	0
SPC1_108	2015_Apr_09_1726	LL-Kramer	PME	cueing_effect	161	0					1	right	200.642608856	-4.04492933237	0.988517533893	936.081235297	u	absent	0
SPC1_108	2015_Apr_09_1726	LL-Kramer	PME	cueing_effect	162	0					1	right	218.531374894	-5.97654346044	0.988517533893	890.70611028	u	absent	0
SPC1_108	2015_Apr_09_1726	LL-Kramer	PME	cueing_effect	163	1	dot	right	184.140829458	1.33764699331	1	right	184.140829458	1.33764699331	0.988517533893	1102.95098741	y	present	1
SPC1_108	2015_Apr_09_1726	LL-Kramer	PME	cueing_effect	164	0					0					1002.83202156	u	absent	1
SPC1_108	2015_Apr_09_1726	LL-Kramer	PME	cueing_effect	165	0					1	right	192.666694068	-23.0634704931	0.988517533893	894.219330512	y	present	1
SPC1_108	2015_Apr_09_1726	LL-Kramer	PME	cueing_effect	166	0					1	left	-189.926775801	10.9540954048	0.988517533893	1019.4650311	u	absent	0
SPC1_108	2015_Apr_09_1726	LL-Kramer	PME	cueing_effect	167	1	dot	left	-200	0	0					1002.1808478	u	absent	1
SPC1_108	2015_Apr_09_1726	LL-Kramer	PME	cueing_effect	168	0					1	left	-180.755064089	11.7690936859	0.988517533893	852.799989283	u	absent	0
SPC1_108	2015_Apr_09_1726	LL-Kramer	PME	cueing_effect	169	0					1	left	-203.437887733	-9.74982505827	0.988517533893	1164.56295876	y	present	1
SPC1_108	2015_Apr_09_1726	LL-Kramer	PME	cueing_effect	170	0					0					952.618713491	y	present	0
SPC1_108	2015_Apr_09_1726	LL-Kramer	PME	cueing_effect	171	1	dot	left	-213.961472008	13.4789371688	1	left	-213.961472008	13.4789371688	0.988517533893	1187.84964038	u	absent	0
SPC1_108	2015_Apr_09_1726	LL-Kramer	PME	cueing_effect	172	1	dot	left	-217.801889875	-5.8861635492	1	left	-217.801889875	-5.8861635492	0.988517533893	938.122100197	y	present	1
SPC1_108	2015_Apr_09_1726	LL-Kramer	PME	cueing_effect	173	0					1	right	182.393965984	-3.76873556788	0.988517533893	1131.69115316	y	present	1
SPC1_108	2015_Apr_09_1726	LL-Kramer	PME	cueing_effect	174	1	dot	right	209.219945599	14.2264411662	1	right	209.219945599	14.2264411662	0.988517533893	819.549567066	u	absent	0
SPC1_108	2015_Apr_09_1726	LL-Kramer	PME	cueing_effect	175	0					0					907.93726407	u	absent	1
SPC1_108	2015_Apr_09_1726	LL-Kramer	PME	cueing_effect	176	1	dot	right	200	0	0					1010.79311036	u	absent	1
SPC1_108	2015_Apr_09_1726	LL-Kramer	PME	cueing_effect	177	1	dot	right	200	0	0					1061.01811631	u	absent	1
SPC1_108	2015_Apr_09_1726	LL-Kramer	PME	cueing_effect	178	0					1	left	-203.325662986	-16.4063758238	0.988517533893	968.620435335	u	absent	0
SPC1_108	2015_Apr_09_1726	LL-Kramer	PME	cueing_effect	179	1	dot	right	200	0	0					936.069537885	u	absent	1
SPC1_108	2015_Apr_09_1726	LL-Kramer	PME	cueing_effect	180	1	dot	left	-195.522828804	17.6135895261	1	left	-195.522828804	17.6135895261	0.988517533893	826.678946614	u	absent	0
SPC1_108	2015_Apr_09_1726	LL-Kramer	PME	cueing_effect	181	0					0					931.156878825	u	absent	1
SPC1_108	2015_Apr_09_1726	LL-Kramer	PME	cueing_effect	182	1	dot	left	-208.144304038	-17.2800991779	1	left	-208.144304038	-17.2800991779	0.988517533893	835.647600237	u	absent	0
SPC1_108	2015_Apr_09_1726	LL-Kramer	PME	cueing_effect	183	0					1	right	197.617660377	17.1658248136	0.988517533893	936.28945481	u	absent	0
SPC1_108	2015_Apr_09_1726	LL-Kramer	PME	cueing_effect	184	0					1	left	-198.088367405	9.77797195644	0.988517533893	839.484457392	y	present	1
SPC1_108	2015_Apr_09_1726	LL-Kramer	PME	cueing_effect	185	1	dot	right	177.803616367	4.20657305158	1	right	177.803616367	4.20657305158	0.988517533893	901.460618246	y	present	1
SPC1_108	2015_Apr_09_1726	LL-Kramer	PME	cueing_effect	186	1	dot	right	177.674858947	-2.28374698528	1	right	177.674858947	-2.28374698528	0.988517533893	1121.89975893	u	absent	0
SPC1_108	2015_Apr_09_1726	LL-Kramer	PME	cueing_effect	187	1	dot	right	212.845784914	-23.7201432009	1	right	212.845784914	-23.7201432009	0.988517533893	869.06413082	u	absent	0
SPC1_108	2015_Apr_09_1726	LL-Kramer	PME	cueing_effect	188	1	dot	left	-198.604357463	17.3838189305	1	left	-198.604357463	17.3838189305	0.988517533893	910.873395856	y	present	1
SPC1_108	2015_Apr_09_1726	LL-Kramer	PME	cueing_effect	189	0					1	right	215.695570465	-18.6105942179	0.988517533893	933.523330837	y	present	1
SPC1_108	2015_Apr_09_1726	LL-Kramer	PME	cueing_effect	190	1	dot	left	-200	0	0					877.516914159	u	absent	1
SPC1_108	2015_Apr_09_1726	LL-Kramer	PME	cueing_effect	191	1	dot	left	-178.212261092	10.1552700802	1	left	-178.212261092	10.1552700802	0.988517533893	1002.41948152	u	absent	0
SPC1_108	2015_Apr_09_1726	LL-Kramer	PME	cueing_effect	192	0					1	right	203.928865933	2.95136322976	0.988517533893	1053.93552734	u	absent	0
SPC1_108	2015_Apr_09_1726	LL-Kramer	PME	cueing_effect	193	1	dot	left	-200	0	0					844.851378351	y	present	0
SPC1_108	2015_Apr_09_1726	LL-Kramer	PME	cueing_effect	194	0					1	left	-177.76092287	1.18623087175	0.988517533893	927.130518481	y	present	1
SPC1_108	2015_Apr_09_1726	LL-Kramer	PME	cueing_effect	195	1	dot	left	-200	0	0					1018.42393307	y	present	0
SPC1_108	2015_Apr_09_1726	LL-Kramer	PME	cueing_effect	196	1	dot	right	212.517297656	14.6892519459	1	right	212.517297656	14.6892519459	0.988517533893	1094.08254456	u	absent	0
SPC1_108	2015_Apr_09_1726	LL-Kramer	PME	cueing_effect	197	1	dot	left	-200	0	0					877.954408992	y	present	0
SPC1_108	2015_Apr_09_1726	LL-Kramer	PME	cueing_effect	198	1	dot	right	187.515684987	-15.2993716579	1	right	187.515684987	-15.2993716579	0.988517533893	855.515033472	y	present	1
SPC1_108	2015_Apr_09_1726	LL-Kramer	PME	cueing_effect	199	0					1	right	200.205459536	-18.5856738985	0.988517533893	1020.99938458	y	present	1
