subj_id	date	computer	experimenter	part	trial_ix	cue_present	cue_type	cue_loc	cue_pos_x	cue_pos_y	target_present	target_loc	target_pos_x	target_pos_y	target_opacity	rt	key	response	is_correct
SPC1_104	2015_Apr_09_1629	LL-Elaine	PME	practice	0	0					1	left	-183.681079512	14.791651563	1.0	946.95237698	y	present	1
SPC1_104	2015_Apr_09_1629	LL-Elaine	PME	practice	1	0					1	right	191.354041651	2.75534124626	1.0	728.372873738	y	present	1
SPC1_104	2015_Apr_09_1629	LL-Elaine	PME	practice	2	0					1	left	-218.1232295	22.6686025508	1.0	569.968345342	u	absent	0
SPC1_104	2015_Apr_09_1629	LL-Elaine	PME	practice	3	0					0					261.189592769	u	absent	1
SPC1_104	2015_Apr_09_1629	LL-Elaine	PME	practice	4	0					1	left	-202.735085732	6.19457888308	1.0	688.197288895	u	absent	0
SPC1_104	2015_Apr_09_1629	LL-Elaine	PME	practice	5	0					1	right	200.375062192	14.1766999537	1.0	339.184230659	u	absent	0
SPC1_104	2015_Apr_09_1629	LL-Elaine	PME	practice	6	0					1	left	-177.89754175	12.7214296102	1.0	644.687777152	u	absent	0
SPC1_104	2015_Apr_09_1629	LL-Elaine	PME	practice	7	0					1	left	-195.987060185	1.19783050232	1.0	386.47593651	u	absent	0
SPC1_104	2015_Apr_09_1629	LL-Elaine	PME	practice	8	0					1	right	177.619392224	13.9822208902	1.0	388.874823926	u	absent	0
SPC1_104	2015_Apr_09_1629	LL-Elaine	PME	practice	9	0					1	left	-185.727469874	-9.8108359168	1.0	220.198655734	u	absent	0
SPC1_104	2015_Apr_09_1629	LL-Elaine	PME	practice	10	0					1	right	208.155389378	-23.4365153428	1.0	340.872051194	u	absent	0
SPC1_104	2015_Apr_09_1629	LL-Elaine	PME	practice	11	0					0					290.385038126	u	absent	1
SPC1_104	2015_Apr_09_1629	LL-Elaine	PME	practice	12	0					1	left	-207.196489836	-13.9784368554	1.0	441.345828352	u	absent	0
SPC1_104	2015_Apr_09_1629	LL-Elaine	PME	practice	13	0					0					785.444954177	u	absent	1
SPC1_104	2015_Apr_09_1629	LL-Elaine	PME	practice	14	0					1	left	-191.014680803	-9.95207406362	1.0	961.220236495	u	absent	0
SPC1_104	2015_Apr_09_1629	LL-Elaine	PME	practice	15	0					1	left	-215.122460581	-6.60709688272	1.0	1735.97672977	u	absent	0
SPC1_104	2015_Apr_09_1629	LL-Elaine	PME	practice	16	0					1	right	210.32557157	21.2642055466	1.0	0.0	u	absent	0
SPC1_104	2015_Apr_09_1629	LL-Elaine	PME	practice	17	0					1	right	218.746133421	8.80168119346	1.0	660.986797651	u	absent	0
SPC1_104	2015_Apr_09_1629	LL-Elaine	PME	practice	18	0					0					307.845638366	u	absent	1
SPC1_104	2015_Apr_09_1629	LL-Elaine	PME	practice	19	0					1	left	-210.054929173	5.37619583931	1.0	767.505282536	u	absent	0
SPC1_104	2015_Apr_09_1629	LL-Elaine	PME	calibration	0	0					1	left	-200.509738167	-19.2893057152	0.8	0.0	y	present	1
SPC1_104	2015_Apr_09_1629	LL-Elaine	PME	calibration	1	0					1	left	-191.636595128	-5.42272874675	0.75516093705	119.06675715	u	absent	0
SPC1_104	2015_Apr_09_1629	LL-Elaine	PME	calibration	2	0					1	left	-198.349310339	0.640763854264	1.0	0.0	y	present	1
SPC1_104	2015_Apr_09_1629	LL-Elaine	PME	calibration	3	0					1	left	-210.614156297	13.4511418741	0.923100304233	340.216817567	u	absent	0
SPC1_104	2015_Apr_09_1629	LL-Elaine	PME	calibration	4	0					1	right	190.572807783	-7.60695208166	1.0	2013.00616562	u	absent	0
SPC1_104	2015_Apr_09_1629	LL-Elaine	PME	calibration	5	0					1	left	-222.171596391	10.362861427	1.0	2079.42286786		timeout	0
SPC1_104	2015_Apr_09_1629	LL-Elaine	PME	calibration	6	0					1	left	-201.630097135	-14.1779681661	1.0	828.311746242	y	present	1
SPC1_104	2015_Apr_09_1629	LL-Elaine	PME	calibration	7	0					1	right	197.139084399	15.2597822157	1.0	724.368631607	u	absent	0
SPC1_104	2015_Apr_09_1629	LL-Elaine	PME	calibration	8	0					1	right	211.39729312	18.4791879818	1.0	1054.26407326	u	absent	0
SPC1_104	2015_Apr_09_1629	LL-Elaine	PME	calibration	9	0					1	right	186.489210593	20.4831551681	1.0	694.653362967	u	absent	0
SPC1_104	2015_Apr_09_1629	LL-Elaine	PME	calibration	10	0					1	left	-216.150149244	-8.88704701236	1.0	1020.2365194	y	present	1
SPC1_104	2015_Apr_09_1629	LL-Elaine	PME	calibration	11	0					1	right	185.727994233	5.92064838343	1.0	2062.29598145		timeout	0
SPC1_104	2015_Apr_09_1629	LL-Elaine	PME	calibration	12	0					0					426.198119996	u	absent	1
SPC1_104	2015_Apr_09_1629	LL-Elaine	PME	calibration	13	0					1	left	-187.455783046	-14.5119726619	1.0	657.686883584	y	present	1
SPC1_104	2015_Apr_09_1629	LL-Elaine	PME	calibration	14	0					0					454.043629812	u	absent	1
SPC1_104	2015_Apr_09_1629	LL-Elaine	PME	calibration	15	0					1	left	-211.071264843	10.0218747733	1.0	1836.25188307	u	absent	0
SPC1_104	2015_Apr_09_1629	LL-Elaine	PME	calibration	16	0					1	right	197.453687827	1.267243736	1.0	1078.30685284	u	absent	0
SPC1_104	2015_Apr_09_1629	LL-Elaine	PME	calibration	17	0					1	right	192.11915532	7.70986713791	1.0	696.669121273	y	present	1
SPC1_104	2015_Apr_09_1629	LL-Elaine	PME	calibration	18	0					1	left	-199.474803988	2.50702549435	1.0	145.536661148	y	present	1
SPC1_104	2015_Apr_09_1629	LL-Elaine	PME	calibration	19	0					1	right	205.814087487	-21.7772836336	1.0	0.0	y	present	1
SPC1_104	2015_Apr_09_1629	LL-Elaine	PME	calibration	20	0					1	left	-216.34707536	-2.30628305742	1.0	211.88212838	u	absent	0
SPC1_104	2015_Apr_09_1629	LL-Elaine	PME	calibration	21	0					0					370.062362636	u	absent	1
SPC1_104	2015_Apr_09_1629	LL-Elaine	PME	calibration	22	0					1	right	186.54442925	21.0372666385	1.0	145.047642291	u	absent	0
SPC1_104	2015_Apr_09_1629	LL-Elaine	PME	calibration	23	0					1	left	-208.521274961	-12.536346236	1.0	0.0	y	present	1
SPC1_104	2015_Apr_09_1629	LL-Elaine	PME	calibration	24	0					1	right	215.921643517	4.10992332761	1.0	690.973208286	y	present	1
SPC1_104	2015_Apr_09_1629	LL-Elaine	PME	calibration	25	0					1	right	209.819613049	-8.02075431347	1.0	423.417708371	y	present	1
SPC1_104	2015_Apr_09_1629	LL-Elaine	PME	calibration	26	0					1	left	-180.056492955	17.865402291	1.0	278.810311109	y	present	1
SPC1_104	2015_Apr_09_1629	LL-Elaine	PME	calibration	27	0					1	right	200.182653307	20.0622779577	1.0	34.4533594325	u	absent	0
SPC1_104	2015_Apr_09_1629	LL-Elaine	PME	calibration	28	0					1	right	180.726622739	-15.5167897746	1.0	1574.1278925	u	absent	0
SPC1_104	2015_Apr_09_1629	LL-Elaine	PME	calibration	29	0					1	left	-210.494149981	-5.69725616897	1.0	849.071618635	y	present	1
SPC1_104	2015_Apr_09_1629	LL-Elaine	PME	calibration	30	0					0					1036.62281879	u	absent	1
SPC1_104	2015_Apr_09_1629	LL-Elaine	PME	calibration	31	0					1	right	211.132843276	-21.792500549	1.0	603.35991811	y	present	1
SPC1_104	2015_Apr_09_1629	LL-Elaine	PME	calibration	32	0					1	right	207.691202073	9.39588732937	1.0	270.240610698	u	absent	0
SPC1_104	2015_Apr_09_1629	LL-Elaine	PME	calibration	33	0					1	right	188.208611819	-11.8907551064	1.0	578.292573802	y	present	1
SPC1_104	2015_Apr_09_1629	LL-Elaine	PME	calibration	34	0					1	right	198.956000952	15.3447109438	1.0	448.877807939	y	present	1
SPC1_104	2015_Apr_09_1629	LL-Elaine	PME	calibration	35	0					1	left	-209.075514966	18.8377179319	1.0	797.449979233	u	absent	0
SPC1_104	2015_Apr_09_1629	LL-Elaine	PME	calibration	36	0					0					1069.84336325	u	absent	1
SPC1_104	2015_Apr_09_1629	LL-Elaine	PME	calibration	37	0					0					545.510669937	u	absent	1
SPC1_104	2015_Apr_09_1629	LL-Elaine	PME	calibration	38	0					0					501.357155386	u	absent	1
SPC1_104	2015_Apr_09_1629	LL-Elaine	PME	calibration	39	0					0					582.728397334	u	absent	1
SPC1_104	2015_Apr_09_1629	LL-Elaine	PME	calibration	40	0					1	left	-199.595204036	-20.452371599	1.0	653.903405881	u	absent	0
SPC1_104	2015_Apr_09_1629	LL-Elaine	PME	calibration	41	0					0					179.112418322	u	absent	1
SPC1_104	2015_Apr_09_1629	LL-Elaine	PME	calibration	42	0					1	right	207.108523905	-10.3977038154	1.0	496.425574645	u	absent	0
SPC1_104	2015_Apr_09_1629	LL-Elaine	PME	calibration	43	0					1	left	-222.379425575	-16.9831554252	1.0	601.338063134	y	present	1
SPC1_104	2015_Apr_09_1629	LL-Elaine	PME	calibration	44	0					0					712.269589305	u	absent	1
SPC1_104	2015_Apr_09_1629	LL-Elaine	PME	calibration	45	0					1	right	180.787728912	-1.05303530451	1.0	399.586708751	u	absent	0
SPC1_104	2015_Apr_09_1629	LL-Elaine	PME	calibration	46	0					1	left	-181.331245391	22.8505249043	1.0	484.090686543	u	absent	0
SPC1_104	2015_Apr_09_1629	LL-Elaine	PME	calibration	47	0					1	right	181.319564938	5.55551932186	1.0	435.883514583	u	absent	0
SPC1_104	2015_Apr_09_1629	LL-Elaine	PME	calibration	48	0					1	left	-180.593253168	21.7820094953	1.0	445.646562148	u	absent	0
SPC1_104	2015_Apr_09_1629	LL-Elaine	PME	calibration	49	0					0					577.798421029	u	absent	1
SPC1_104	2015_Apr_09_1629	LL-Elaine	PME	calibration	50	0					1	left	-204.611201531	-2.0680749967	1.0	467.917771777	y	present	1
SPC1_104	2015_Apr_09_1629	LL-Elaine	PME	calibration	51	0					1	right	202.053636882	-15.5639527994	1.0	832.342942012	u	absent	0
SPC1_104	2015_Apr_09_1629	LL-Elaine	PME	calibration	52	0					1	left	-189.705644931	-17.1912946135	1.0	736.77796335	u	absent	0
SPC1_104	2015_Apr_09_1629	LL-Elaine	PME	calibration	53	0					1	left	-208.055455756	18.7867497338	1.0	445.546768839	u	absent	0
SPC1_104	2015_Apr_09_1629	LL-Elaine	PME	calibration	54	0					1	left	-191.167637061	-1.6498715104	1.0	561.565180775	y	present	1
SPC1_104	2015_Apr_09_1629	LL-Elaine	PME	calibration	55	0					1	right	216.807786957	-9.896533549	1.0	1286.98565182	u	absent	0
SPC1_104	2015_Apr_09_1629	LL-Elaine	PME	calibration	56	0					1	left	-201.248369053	21.70440342	1.0	1261.92825474	u	absent	0
SPC1_104	2015_Apr_09_1629	LL-Elaine	PME	calibration	57	0					1	right	207.247076155	-23.128242841	1.0	670.534535311	u	absent	0
SPC1_104	2015_Apr_09_1629	LL-Elaine	PME	calibration	58	0					1	left	-217.695019261	-10.4659428365	1.0	2079.72417283		timeout	0
SPC1_104	2015_Apr_09_1629	LL-Elaine	PME	calibration	59	0					1	right	214.58548219	-22.392404962	1.0	1717.05869981	u	absent	0
SPC1_104	2015_Apr_09_1629	LL-Elaine	PME	calibration	60	0					0					545.198776061	u	absent	1
SPC1_104	2015_Apr_09_1629	LL-Elaine	PME	calibration	61	0					1	left	-204.798450863	16.0369853137	1.0	421.516503673	u	absent	0
SPC1_104	2015_Apr_09_1629	LL-Elaine	PME	calibration	62	0					1	right	198.970176865	-11.9412127869	1.0	407.705253921	u	absent	0
SPC1_104	2015_Apr_09_1629	LL-Elaine	PME	calibration	63	0					1	right	177.17362751	-19.4213963899	1.0	520.085867029	y	present	1
SPC1_104	2015_Apr_09_1629	LL-Elaine	PME	calibration	64	0					0					495.363146067	u	absent	1
SPC1_104	2015_Apr_09_1629	LL-Elaine	PME	calibration	65	0					1	right	181.644519219	-5.18455900977	1.0	301.020553801	u	absent	0
SPC1_104	2015_Apr_09_1629	LL-Elaine	PME	calibration	66	0					1	right	222.383038633	1.42677914224	1.0	553.476798115	y	present	1
SPC1_104	2015_Apr_09_1629	LL-Elaine	PME	calibration	67	0					1	left	-203.307208457	6.59005230688	1.0	574.102543062	y	present	1
SPC1_104	2015_Apr_09_1629	LL-Elaine	PME	calibration	68	0					1	left	-210.797824428	18.2871353392	1.0	411.688638851	y	present	1
SPC1_104	2015_Apr_09_1629	LL-Elaine	PME	calibration	69	0					1	right	185.259991743	6.39172349792	1.0	453.582848422	u	absent	0
SPC1_104	2015_Apr_09_1629	LL-Elaine	PME	calibration	70	0					0					936.802029144	u	absent	1
SPC1_104	2015_Apr_09_1629	LL-Elaine	PME	calibration	71	0					1	left	-185.428145734	16.9439730793	1.0	394.728929969	y	present	1
SPC1_104	2015_Apr_09_1629	LL-Elaine	PME	calibration	72	0					1	left	-178.449412597	-17.7307733525	1.0	794.725400163	u	absent	0
SPC1_104	2015_Apr_09_1629	LL-Elaine	PME	calibration	73	0					1	right	210.927479638	-8.59190774204	1.0	1378.27973859	u	absent	0
SPC1_104	2015_Apr_09_1629	LL-Elaine	PME	calibration	74	0					1	left	-193.047277618	-18.4401405113	1.0	670.423190575	u	absent	0
SPC1_104	2015_Apr_09_1629	LL-Elaine	PME	calibration	75	0					0					497.314728796	u	absent	1
SPC1_104	2015_Apr_09_1629	LL-Elaine	PME	calibration	76	0					1	right	200.321540382	-6.41194669564	1.0	744.778746273	u	absent	0
SPC1_104	2015_Apr_09_1629	LL-Elaine	PME	calibration	77	0					1	left	-207.935247522	-7.73358753745	1.0	619.827078655	y	present	1
SPC1_104	2015_Apr_09_1629	LL-Elaine	PME	calibration	78	0					1	left	-200.040778495	7.18042732365	1.0	653.60723529	y	present	1
SPC1_104	2015_Apr_09_1629	LL-Elaine	PME	calibration	79	0					1	right	180.660812302	-7.95332315139	1.0	711.788271787	y	present	1
SPC1_104	2015_Apr_09_1629	LL-Elaine	PME	calibration	80	0					0					640.203180257	u	absent	1
SPC1_104	2015_Apr_09_1629	LL-Elaine	PME	calibration	81	0					1	left	-184.319317598	-15.1074083674	1.0	857.602492673	u	absent	0
SPC1_104	2015_Apr_09_1629	LL-Elaine	PME	calibration	82	0					1	left	-204.51701889	2.41613639574	1.0	551.201128168	y	present	1
SPC1_104	2015_Apr_09_1629	LL-Elaine	PME	calibration	83	0					1	right	184.591993647	3.78425197243	1.0	620.001957286	y	present	1
SPC1_104	2015_Apr_09_1629	LL-Elaine	PME	calibration	84	0					0					628.707710188	u	absent	1
SPC1_104	2015_Apr_09_1629	LL-Elaine	PME	calibration	85	0					1	right	218.012547843	-6.63519712751	1.0	614.068594063	y	present	1
SPC1_104	2015_Apr_09_1629	LL-Elaine	PME	calibration	86	0					1	left	-219.692941021	16.8802767189	1.0	636.834598379	u	absent	0
SPC1_104	2015_Apr_09_1629	LL-Elaine	PME	calibration	87	0					1	left	-219.673339461	-13.2979118889	1.0	771.442139987	y	present	1
SPC1_104	2015_Apr_09_1629	LL-Elaine	PME	calibration	88	0					1	left	-223.81187686	-2.88495249272	1.0	1073.58576846	u	absent	0
SPC1_104	2015_Apr_09_1629	LL-Elaine	PME	calibration	89	0					0					794.952903176	u	absent	1
SPC1_104	2015_Apr_09_1629	LL-Elaine	PME	calibration	90	0					0					1844.55846343	u	absent	1
SPC1_104	2015_Apr_09_1629	LL-Elaine	PME	calibration	91	0					1	left	-185.305923758	-3.29366592167	1.0	588.820274454	y	present	1
SPC1_104	2015_Apr_09_1629	LL-Elaine	PME	calibration	92	0					1	right	179.09584578	21.6648707371	1.0	1016.85574418	u	absent	0
SPC1_104	2015_Apr_09_1629	LL-Elaine	PME	calibration	93	0					0					603.045457276	u	absent	1
SPC1_104	2015_Apr_09_1629	LL-Elaine	PME	calibration	94	0					1	right	194.966065943	-18.1743718512	1.0	537.398221437	y	present	1
SPC1_104	2015_Apr_09_1629	LL-Elaine	PME	calibration	95	0					1	right	214.673404947	-14.4282170827	1.0	458.94216001	y	present	1
SPC1_104	2015_Apr_09_1629	LL-Elaine	PME	calibration	96	0					1	left	-178.87731309	-0.582745840497	1.0	670.564056141	u	absent	0
SPC1_104	2015_Apr_09_1629	LL-Elaine	PME	calibration	97	0					1	left	-195.433614591	0.822712553681	1.0	544.82013965	y	present	1
SPC1_104	2015_Apr_09_1629	LL-Elaine	PME	calibration	98	0					1	left	-179.812448183	7.39369299732	1.0	546.265376033	y	present	1
SPC1_104	2015_Apr_09_1629	LL-Elaine	PME	calibration	99	0					1	left	-222.271096384	-5.40562211835	1.0	870.458166348	y	present	1
SPC1_104	2015_Apr_09_1629	LL-Elaine	PME	calibration	100	0					1	left	-186.51044195	9.10250140456	1.0	1007.60449795	u	absent	0
SPC1_104	2015_Apr_09_1629	LL-Elaine	PME	calibration	101	0					1	right	191.342905395	5.18612153915	1.0	669.631904457	u	absent	0
SPC1_104	2015_Apr_09_1629	LL-Elaine	PME	calibration	102	0					1	left	-189.404303876	8.31189221451	1.0	703.51891336	u	absent	0
SPC1_104	2015_Apr_09_1629	LL-Elaine	PME	calibration	103	0					1	right	207.921255625	9.38583744327	1.0	601.165430387	y	present	1
SPC1_104	2015_Apr_09_1629	LL-Elaine	PME	calibration	104	0					1	right	211.523569923	7.51505529224	1.0	620.24197448	y	present	1
SPC1_104	2015_Apr_09_1629	LL-Elaine	PME	calibration	105	0					1	left	-184.486875748	10.8425459069	1.0	830.567200901	u	absent	0
SPC1_104	2015_Apr_09_1629	LL-Elaine	PME	calibration	106	0					1	right	216.064733175	-21.9516721925	1.0	694.294621004	y	present	1
SPC1_104	2015_Apr_09_1629	LL-Elaine	PME	calibration	107	0					1	left	-221.033492204	-12.4702353962	1.0	607.05322912	y	present	1
SPC1_104	2015_Apr_09_1629	LL-Elaine	PME	calibration	108	0					1	left	-198.358922974	-14.3684938452	1.0	442.746462766	y	present	1
SPC1_104	2015_Apr_09_1629	LL-Elaine	PME	calibration	109	0					1	left	-222.189619106	-11.7270711872	1.0	561.646684073	y	present	1
SPC1_104	2015_Apr_09_1629	LL-Elaine	PME	calibration	110	0					1	right	197.840178616	-16.6991740552	1.0	670.53389363	y	present	1
SPC1_104	2015_Apr_09_1629	LL-Elaine	PME	calibration	111	0					1	left	-209.383815498	-5.29894833486	1.0	692.824997706	y	present	1
SPC1_104	2015_Apr_09_1629	LL-Elaine	PME	calibration	112	0					1	right	210.365026026	21.599943218	1.0	795.194524573	u	absent	0
SPC1_104	2015_Apr_09_1629	LL-Elaine	PME	calibration	113	0					1	left	-206.108904313	-22.0970270739	1.0	836.496392498	u	absent	0
SPC1_104	2015_Apr_09_1629	LL-Elaine	PME	calibration	114	0					0					870.769739384	u	absent	1
SPC1_104	2015_Apr_09_1629	LL-Elaine	PME	calibration	115	0					1	right	177.478295705	-23.0930337265	1.0	690.423864406	y	present	1
SPC1_104	2015_Apr_09_1629	LL-Elaine	PME	calibration	116	0					1	right	187.887618884	18.6020955965	1.0	735.879182816	u	absent	0
SPC1_104	2015_Apr_09_1629	LL-Elaine	PME	calibration	117	0					1	left	-190.918816237	-14.4567503102	1.0	603.780910606	u	absent	0
SPC1_104	2015_Apr_09_1629	LL-Elaine	PME	calibration	118	0					0					787.218128331	u	absent	1
SPC1_104	2015_Apr_09_1629	LL-Elaine	PME	calibration	119	0					0					497.106157942	u	absent	1
SPC1_104	2015_Apr_09_1629	LL-Elaine	PME	cueing_effect	0	1	dot	left	-200	0	0					568.091527559	u	absent	1
SPC1_104	2015_Apr_09_1629	LL-Elaine	PME	cueing_effect	1	0					1	right	197.43712173	-22.3490812232	1.3666111085	1284.07592629	u	absent	0
SPC1_104	2015_Apr_09_1629	LL-Elaine	PME	cueing_effect	2	1	dot	right	200	0	0					626.056612702	u	absent	1
SPC1_104	2015_Apr_09_1629	LL-Elaine	PME	cueing_effect	3	0					1	right	188.142702193	15.3962331339	1.3666111085	178.654203657	u	absent	0
SPC1_104	2015_Apr_09_1629	LL-Elaine	PME	cueing_effect	4	1	dot	right	184.745233111	12.3181465843	1	right	184.745233111	12.3181465843	1.3666111085	145.912730601	u	absent	0
SPC1_104	2015_Apr_09_1629	LL-Elaine	PME	cueing_effect	5	0					1	right	206.25861328	8.49330896441	1.3666111085	636.00544841	u	absent	0
SPC1_104	2015_Apr_09_1629	LL-Elaine	PME	cueing_effect	6	0					1	left	-193.347419213	18.315822238	1.3666111085	1128.66615644	u	absent	0
SPC1_104	2015_Apr_09_1629	LL-Elaine	PME	cueing_effect	7	0					1	left	-207.622005094	-13.0981433872	1.3666111085	495.193722192	y	present	1
SPC1_104	2015_Apr_09_1629	LL-Elaine	PME	cueing_effect	8	1	dot	left	-215.590648826	10.1958313602	1	left	-215.590648826	10.1958313602	1.3666111085	689.290521666	u	absent	0
SPC1_104	2015_Apr_09_1629	LL-Elaine	PME	cueing_effect	9	0					1	right	182.611658224	6.08288535755	1.3666111085	702.990105608	u	absent	0
SPC1_104	2015_Apr_09_1629	LL-Elaine	PME	cueing_effect	10	1	dot	right	212.081580287	-18.4338285072	1	right	212.081580287	-18.4338285072	1.3666111085	411.825012183	u	absent	0
SPC1_104	2015_Apr_09_1629	LL-Elaine	PME	cueing_effect	11	1	dot	left	-200	0	0					262.418556958	u	absent	1
SPC1_104	2015_Apr_09_1629	LL-Elaine	PME	cueing_effect	12	0					1	left	-180.740106173	-21.6300747182	1.3666111085	994.961566757	y	present	1
SPC1_104	2015_Apr_09_1629	LL-Elaine	PME	cueing_effect	13	1	dot	left	-191.472647778	-16.82371442	1	left	-191.472647778	-16.82371442	1.3666111085	933.705873322	y	present	1
SPC1_104	2015_Apr_09_1629	LL-Elaine	PME	cueing_effect	14	1	dot	left	-193.193232876	-22.9434856718	1	left	-193.193232876	-22.9434856718	1.3666111085	603.077545064	y	present	1
SPC1_104	2015_Apr_09_1629	LL-Elaine	PME	cueing_effect	15	1	dot	left	-190.108400251	-1.97794442138	1	left	-190.108400251	-1.97794442138	1.3666111085	287.05271543	u	absent	0
SPC1_104	2015_Apr_09_1629	LL-Elaine	PME	cueing_effect	16	0					1	left	-183.210783503	7.8147030367	1.3666111085	1070.91509714	u	absent	0
SPC1_104	2015_Apr_09_1629	LL-Elaine	PME	cueing_effect	17	0					1	left	-216.172951199	14.2870754881	1.3666111085	695.056065451	y	present	1
SPC1_104	2015_Apr_09_1629	LL-Elaine	PME	cueing_effect	18	1	dot	left	-187.109391192	-7.29111947751	1	left	-187.109391192	-7.29111947751	1.3666111085	595.135162119	y	present	1
SPC1_104	2015_Apr_09_1629	LL-Elaine	PME	cueing_effect	19	0					1	right	197.611162707	10.1109250659	1.3666111085	778.36765931	u	absent	0
SPC1_104	2015_Apr_09_1629	LL-Elaine	PME	cueing_effect	20	1	dot	left	-213.292163589	22.481101087	1	left	-213.292163589	22.481101087	1.3666111085	428.828360513	y	present	1
SPC1_104	2015_Apr_09_1629	LL-Elaine	PME	cueing_effect	21	0					1	right	211.806671097	-12.0922067932	1.3666111085	1169.6317438	u	absent	0
SPC1_104	2015_Apr_09_1629	LL-Elaine	PME	cueing_effect	22	1	dot	left	-182.003187444	-18.3387051858	1	left	-182.003187444	-18.3387051858	1.3666111085	621.326543624	y	present	1
SPC1_104	2015_Apr_09_1629	LL-Elaine	PME	cueing_effect	23	1	dot	right	219.121779406	17.0235723743	1	right	219.121779406	17.0235723743	1.3666111085	1053.55621548	y	present	1
SPC1_104	2015_Apr_09_1629	LL-Elaine	PME	cueing_effect	24	1	dot	left	-200	0	0					408.338988898	u	absent	1
SPC1_104	2015_Apr_09_1629	LL-Elaine	PME	cueing_effect	25	0					0					701.183880912	u	absent	1
SPC1_104	2015_Apr_09_1629	LL-Elaine	PME	cueing_effect	26	1	dot	left	-182.75466021	-12.9890855682	1	left	-182.75466021	-12.9890855682	1.3666111085	661.7957321	y	present	1
SPC1_104	2015_Apr_09_1629	LL-Elaine	PME	cueing_effect	27	0					0					1206.46217093	u	absent	1
SPC1_104	2015_Apr_09_1629	LL-Elaine	PME	cueing_effect	28	1	dot	left	-199.61428688	3.19479264179	1	left	-199.61428688	3.19479264179	1.3666111085	778.362525394	y	present	1
SPC1_104	2015_Apr_09_1629	LL-Elaine	PME	cueing_effect	29	0					1	right	197.159220743	-22.8267289809	1.3666111085	690.960693872	u	absent	0
SPC1_104	2015_Apr_09_1629	LL-Elaine	PME	cueing_effect	30	0					1	left	-182.099957559	15.4438001202	1.3666111085	636.774915038	u	absent	0
SPC1_104	2015_Apr_09_1629	LL-Elaine	PME	cueing_effect	31	1	dot	right	204.659515031	21.5391930852	1	right	204.659515031	21.5391930852	1.3666111085	711.740460712	u	absent	0
SPC1_104	2015_Apr_09_1629	LL-Elaine	PME	cueing_effect	32	0					1	left	-177.051826357	-23.6249727521	1.3666111085	653.449362842	u	absent	0
SPC1_104	2015_Apr_09_1629	LL-Elaine	PME	cueing_effect	33	0					0					978.296103422	u	absent	1
SPC1_104	2015_Apr_09_1629	LL-Elaine	PME	cueing_effect	34	1	dot	right	206.851584981	-1.33546636316	1	right	206.851584981	-1.33546636316	1.3666111085	503.475273959	y	present	1
SPC1_104	2015_Apr_09_1629	LL-Elaine	PME	cueing_effect	35	0					1	right	195.724787435	-9.78112903264	1.3666111085	1628.19077517	u	absent	0
SPC1_104	2015_Apr_09_1629	LL-Elaine	PME	cueing_effect	36	0					1	right	212.871870703	17.6104360788	1.3666111085	469.554572599	u	absent	0
SPC1_104	2015_Apr_09_1629	LL-Elaine	PME	cueing_effect	37	0					1	left	-208.533125509	16.6243988772	1.3666111085	354.038014542	u	absent	0
SPC1_104	2015_Apr_09_1629	LL-Elaine	PME	cueing_effect	38	0					1	right	181.997149587	7.98593052624	1.3666111085	481.083734892	y	present	1
SPC1_104	2015_Apr_09_1629	LL-Elaine	PME	cueing_effect	39	0					1	right	208.474652272	5.36550636935	1.3666111085	886.25469082	u	absent	0
SPC1_104	2015_Apr_09_1629	LL-Elaine	PME	cueing_effect	40	0					1	right	199.457474637	-21.053200998	1.3666111085	637.26297114	u	absent	0
SPC1_104	2015_Apr_09_1629	LL-Elaine	PME	cueing_effect	41	1	dot	right	219.520169004	-8.33396890681	1	right	219.520169004	-8.33396890681	1.3666111085	745.089998469	u	absent	0
SPC1_104	2015_Apr_09_1629	LL-Elaine	PME	cueing_effect	42	0					1	left	-196.690512229	-16.2273200097	1.3666111085	511.848275783	u	absent	0
SPC1_104	2015_Apr_09_1629	LL-Elaine	PME	cueing_effect	43	1	dot	left	-180.140421023	-21.3314710159	1	left	-180.140421023	-21.3314710159	1.3666111085	403.622075915	y	present	1
SPC1_104	2015_Apr_09_1629	LL-Elaine	PME	cueing_effect	44	0					1	left	-198.66185865	-0.26997830911	1.3666111085	945.51419979	y	present	1
SPC1_104	2015_Apr_09_1629	LL-Elaine	PME	cueing_effect	45	0					1	left	-217.125026966	-21.5784201151	1.3666111085	853.94608276	u	absent	0
SPC1_104	2015_Apr_09_1629	LL-Elaine	PME	cueing_effect	46	0					1	right	207.842392686	22.750910133	1.3666111085	1012.07754342	u	absent	0
SPC1_104	2015_Apr_09_1629	LL-Elaine	PME	cueing_effect	47	0					1	left	-184.620234479	20.1946970275	1.3666111085	544.987317408	u	absent	0
SPC1_104	2015_Apr_09_1629	LL-Elaine	PME	cueing_effect	48	1	dot	left	-207.429426054	-15.2771023306	1	left	-207.429426054	-15.2771023306	1.3666111085	478.72656188	y	present	1
SPC1_104	2015_Apr_09_1629	LL-Elaine	PME	cueing_effect	49	0					1	left	-216.594475511	-15.0775944627	1.3666111085	778.065391816	y	present	1
SPC1_104	2015_Apr_09_1629	LL-Elaine	PME	cueing_effect	50	0					1	right	209.679180717	-9.47600020513	1.3666111085	1360.97027222	u	absent	0
SPC1_104	2015_Apr_09_1629	LL-Elaine	PME	cueing_effect	51	1	dot	right	180.81254618	-1.07995482608	1	right	180.81254618	-1.07995482608	1.3666111085	553.383101709	u	absent	0
SPC1_104	2015_Apr_09_1629	LL-Elaine	PME	cueing_effect	52	0					1	left	-207.064756254	1.899393738	1.3666111085	1861.50758318	u	absent	0
SPC1_104	2015_Apr_09_1629	LL-Elaine	PME	cueing_effect	53	1	dot	right	215.464820996	18.8070936294	1	right	215.464820996	18.8070936294	1.3666111085	988.434578525	u	absent	0
SPC1_104	2015_Apr_09_1629	LL-Elaine	PME	cueing_effect	54	1	dot	right	205.145296309	-1.67249338012	1	right	205.145296309	-1.67249338012	1.3666111085	428.82450996	y	present	1
SPC1_104	2015_Apr_09_1629	LL-Elaine	PME	cueing_effect	55	0					0					778.823948465	u	absent	1
SPC1_104	2015_Apr_09_1629	LL-Elaine	PME	cueing_effect	56	0					1	right	185.00704537	9.44672218067	1.3666111085	969.513981603	u	absent	0
SPC1_104	2015_Apr_09_1629	LL-Elaine	PME	cueing_effect	57	0					1	left	-193.677872768	-13.5024297532	1.3666111085	678.206738783	u	absent	0
SPC1_104	2015_Apr_09_1629	LL-Elaine	PME	cueing_effect	58	0					1	right	179.486118869	-2.33859733455	1.3666111085	520.505255321	u	absent	0
SPC1_104	2015_Apr_09_1629	LL-Elaine	PME	cueing_effect	59	1	dot	left	-210.934141371	-17.2928536017	1	left	-210.934141371	-17.2928536017	1.3666111085	878.410175676	u	absent	0
SPC1_104	2015_Apr_09_1629	LL-Elaine	PME	cueing_effect	60	1	dot	right	203.282846085	-5.77312001503	1	right	203.282846085	-5.77312001503	1.3666111085	1153.06061879	u	absent	0
SPC1_104	2015_Apr_09_1629	LL-Elaine	PME	cueing_effect	61	1	dot	right	207.257866671	-4.80843704764	1	right	207.257866671	-4.80843704764	1.3666111085	661.504695192	y	present	1
SPC1_104	2015_Apr_09_1629	LL-Elaine	PME	cueing_effect	62	1	dot	left	-202.10666829	-23.4662791541	1	left	-202.10666829	-23.4662791541	1.3666111085	544.365454931	y	present	1
SPC1_104	2015_Apr_09_1629	LL-Elaine	PME	cueing_effect	63	1	dot	right	178.56240632	-11.2792989364	1	right	178.56240632	-11.2792989364	1.3666111085	770.11402417	u	absent	0
SPC1_104	2015_Apr_09_1629	LL-Elaine	PME	cueing_effect	64	0					0					636.724216165	u	absent	1
SPC1_104	2015_Apr_09_1629	LL-Elaine	PME	cueing_effect	65	1	dot	right	193.706649756	10.5208359351	1	right	193.706649756	10.5208359351	1.3666111085	562.29582103	y	present	1
SPC1_104	2015_Apr_09_1629	LL-Elaine	PME	cueing_effect	66	0					1	right	210.757769937	13.9619253706	1.3666111085	630.788927898	u	absent	0
SPC1_104	2015_Apr_09_1629	LL-Elaine	PME	cueing_effect	67	1	dot	left	-178.623143124	14.009385691	1	left	-178.623143124	14.009385691	1.3666111085	657.179895788	y	present	1
SPC1_104	2015_Apr_09_1629	LL-Elaine	PME	cueing_effect	68	0					1	left	-201.131684241	16.5246910338	1.3666111085	892.069970723	u	absent	0
SPC1_104	2015_Apr_09_1629	LL-Elaine	PME	cueing_effect	69	0					1	right	181.024163891	-0.487759649214	1.3666111085	678.832772654	u	absent	0
SPC1_104	2015_Apr_09_1629	LL-Elaine	PME	cueing_effect	70	0					1	right	217.645557974	-7.0790423116	1.3666111085	458.487475291	u	absent	0
SPC1_104	2015_Apr_09_1629	LL-Elaine	PME	cueing_effect	71	1	dot	left	-181.284554582	-6.63160220282	1	left	-181.284554582	-6.63160220282	1.3666111085	394.877175801	y	present	1
SPC1_104	2015_Apr_09_1629	LL-Elaine	PME	cueing_effect	72	1	dot	left	-200	0	0					504.154252587	u	absent	1
SPC1_104	2015_Apr_09_1629	LL-Elaine	PME	cueing_effect	73	0					1	right	204.370704242	13.1659019009	1.3666111085	586.414648918	u	absent	0
SPC1_104	2015_Apr_09_1629	LL-Elaine	PME	cueing_effect	74	0					1	right	176.155090833	16.0571683015	1.3666111085	545.35761103	u	absent	0
SPC1_104	2015_Apr_09_1629	LL-Elaine	PME	cueing_effect	75	1	dot	right	220.046233174	-20.3926849094	1	right	220.046233174	-20.3926849094	1.3666111085	811.813460663	u	absent	0
SPC1_104	2015_Apr_09_1629	LL-Elaine	PME	cueing_effect	76	1	dot	left	-208.202880658	-17.7034716622	1	left	-208.202880658	-17.7034716622	1.3666111085	970.116591081	u	absent	0
SPC1_104	2015_Apr_09_1629	LL-Elaine	PME	cueing_effect	77	0					1	left	-196.788908444	17.7713065787	1.3666111085	624.15829557	u	absent	0
SPC1_104	2015_Apr_09_1629	LL-Elaine	PME	cueing_effect	78	0					1	right	219.530285657	-17.2712694411	1.3666111085	907.000123523	u	absent	0
SPC1_104	2015_Apr_09_1629	LL-Elaine	PME	cueing_effect	79	1	dot	left	-199.920391902	-8.2258378575	1	left	-199.920391902	-8.2258378575	1.3666111085	647.005803185	y	present	1
SPC1_104	2015_Apr_09_1629	LL-Elaine	PME	cueing_effect	80	1	dot	left	-209.52448223	-0.129312559196	1	left	-209.52448223	-0.129312559196	1.3666111085	568.052059272	y	present	1
SPC1_104	2015_Apr_09_1629	LL-Elaine	PME	cueing_effect	81	1	dot	left	-214.018957163	-1.7644325017	1	left	-214.018957163	-1.7644325017	1.3666111085	495.272016618	y	present	1
SPC1_104	2015_Apr_09_1629	LL-Elaine	PME	cueing_effect	82	0					1	left	-216.135439488	11.8126934749	1.3666111085	720.156139461	u	absent	0
SPC1_104	2015_Apr_09_1629	LL-Elaine	PME	cueing_effect	83	1	dot	right	176.15352444	-10.6505940403	1	right	176.15352444	-10.6505940403	1.3666111085	70.7707018591	u	absent	0
SPC1_104	2015_Apr_09_1629	LL-Elaine	PME	cueing_effect	84	1	dot	right	192.065462484	-8.69480498111	1	right	192.065462484	-8.69480498111	1.3666111085	320.240530651	y	present	1
SPC1_104	2015_Apr_09_1629	LL-Elaine	PME	cueing_effect	85	1	dot	left	-198.168783367	-2.63007850793	1	left	-198.168783367	-2.63007850793	1.3666111085	338.448777329	y	present	1
SPC1_104	2015_Apr_09_1629	LL-Elaine	PME	cueing_effect	86	1	dot	left	-203.959329301	-6.05674390388	1	left	-203.959329301	-6.05674390388	1.3666111085	411.728748586	y	present	1
SPC1_104	2015_Apr_09_1629	LL-Elaine	PME	cueing_effect	87	0					1	left	-190.005461758	-6.9352596269	1.3666111085	392.531233607	y	present	1
SPC1_104	2015_Apr_09_1629	LL-Elaine	PME	cueing_effect	88	0					0					487.990963971	u	absent	1
SPC1_104	2015_Apr_09_1629	LL-Elaine	PME	cueing_effect	89	1	dot	right	176.981521437	0.560098144711	1	right	176.981521437	0.560098144711	1.3666111085	478.591792751	y	present	1
SPC1_104	2015_Apr_09_1629	LL-Elaine	PME	cueing_effect	90	1	dot	right	222.578645219	-1.03940674038	1	right	222.578645219	-1.03940674038	1.3666111085	447.00901187	y	present	1
SPC1_104	2015_Apr_09_1629	LL-Elaine	PME	cueing_effect	91	1	dot	right	185.175049456	3.78654629825	1	right	185.175049456	3.78654629825	1.3666111085	520.747197559	y	present	1
SPC1_104	2015_Apr_09_1629	LL-Elaine	PME	cueing_effect	92	0					1	left	-218.894789292	-18.9814133787	1.3666111085	766.453442862	u	absent	0
SPC1_104	2015_Apr_09_1629	LL-Elaine	PME	cueing_effect	93	0					1	right	218.497876958	-12.8937560821	1.3666111085	870.043270523	u	absent	0
SPC1_104	2015_Apr_09_1629	LL-Elaine	PME	cueing_effect	94	1	dot	right	197.287673371	22.1053097308	1	right	197.287673371	22.1053097308	1.3666111085	645.673836581	y	present	1
SPC1_104	2015_Apr_09_1629	LL-Elaine	PME	cueing_effect	95	1	dot	right	204.755478585	21.9392440678	1	right	204.755478585	21.9392440678	1.3666111085	511.502689915	y	present	1
SPC1_104	2015_Apr_09_1629	LL-Elaine	PME	cueing_effect	96	0					1	right	184.633008396	8.90332589304	1.3666111085	405.015330063	y	present	1
SPC1_104	2015_Apr_09_1629	LL-Elaine	PME	cueing_effect	97	1	dot	right	213.451936479	8.34382181799	1	right	213.451936479	8.34382181799	1.3666111085	445.614794968	y	present	1
SPC1_104	2015_Apr_09_1629	LL-Elaine	PME	cueing_effect	98	1	dot	right	192.204720578	19.3394972675	1	right	192.204720578	19.3394972675	1.3666111085	461.555714952	y	present	1
SPC1_104	2015_Apr_09_1629	LL-Elaine	PME	cueing_effect	99	1	dot	left	-187.526198553	11.9611658998	1	left	-187.526198553	11.9611658998	1.3666111085	488.143702038	y	present	1
SPC1_104	2015_Apr_09_1629	LL-Elaine	PME	cueing_effect	100	1	dot	left	-198.356503216	-20.1291306372	1	left	-198.356503216	-20.1291306372	1.3666111085	404.084461508	y	present	1
SPC1_104	2015_Apr_09_1629	LL-Elaine	PME	cueing_effect	101	0					1	left	-192.175028606	20.2785195201	1.3666111085	411.937319674	u	absent	0
SPC1_104	2015_Apr_09_1629	LL-Elaine	PME	cueing_effect	102	0					1	right	186.405705044	5.62564286122	1.3666111085	395.396357169	u	absent	0
SPC1_104	2015_Apr_09_1629	LL-Elaine	PME	cueing_effect	103	0					1	left	-185.706002994	5.52200854877	1.3666111085	678.317441838	u	absent	0
SPC1_104	2015_Apr_09_1629	LL-Elaine	PME	cueing_effect	104	0					1	left	-206.069040813	7.72151274293	1.3666111085	336.918507935	u	absent	0
SPC1_104	2015_Apr_09_1629	LL-Elaine	PME	cueing_effect	105	0					0					476.151191397	u	absent	1
SPC1_104	2015_Apr_09_1629	LL-Elaine	PME	cueing_effect	106	0					1	right	208.555610388	-22.7333071833	1.3666111085	434.202753473	u	absent	0
SPC1_104	2015_Apr_09_1629	LL-Elaine	PME	cueing_effect	107	1	dot	right	200	0	0					603.530946188	u	absent	1
SPC1_104	2015_Apr_09_1629	LL-Elaine	PME	cueing_effect	108	0					1	left	-206.57605495	20.5173989569	1.3666111085	603.401953122	u	absent	0
SPC1_104	2015_Apr_09_1629	LL-Elaine	PME	cueing_effect	109	0					1	left	-195.737736984	-6.42148263252	1.3666111085	537.226230372	u	absent	0
SPC1_104	2015_Apr_09_1629	LL-Elaine	PME	cueing_effect	110	1	dot	left	-207.787333852	-8.88935727463	1	left	-207.787333852	-8.88935727463	1.3666111085	521.345956717	y	present	1
SPC1_104	2015_Apr_09_1629	LL-Elaine	PME	cueing_effect	111	0					1	right	192.468551827	-18.6114479989	1.3666111085	428.684927989	u	absent	0
SPC1_104	2015_Apr_09_1629	LL-Elaine	PME	cueing_effect	112	1	dot	left	-210.865422707	-1.721947284	1	left	-210.865422707	-1.721947284	1.3666111085	506.974453107	y	present	1
SPC1_104	2015_Apr_09_1629	LL-Elaine	PME	cueing_effect	113	0					1	right	183.846867835	-15.660377966	1.3666111085	464.384900173	u	absent	0
SPC1_104	2015_Apr_09_1629	LL-Elaine	PME	cueing_effect	114	0					1	left	-202.26825654	3.34529828468	1.3666111085	679.007651517	u	absent	0
SPC1_104	2015_Apr_09_1629	LL-Elaine	PME	cueing_effect	115	1	dot	right	207.507195988	-14.5967368988	1	right	207.507195988	-14.5967368988	1.3666111085	362.093988573	y	present	1
SPC1_104	2015_Apr_09_1629	LL-Elaine	PME	cueing_effect	116	0					1	right	213.132568351	-19.50473113	1.3666111085	619.720546994	u	absent	0
SPC1_104	2015_Apr_09_1629	LL-Elaine	PME	cueing_effect	117	0					0					511.430492159	u	absent	1
SPC1_104	2015_Apr_09_1629	LL-Elaine	PME	cueing_effect	118	0					1	left	-215.951225755	-7.02420185051	1.3666111085	503.288843669	u	absent	0
SPC1_104	2015_Apr_09_1629	LL-Elaine	PME	cueing_effect	119	1	dot	right	200	0	0					512.327668257	u	absent	1
SPC1_104	2015_Apr_09_1629	LL-Elaine	PME	cueing_effect	120	0					1	left	-222.561075625	-10.3703032299	1.3666111085	636.953965295	y	present	1
SPC1_104	2015_Apr_09_1629	LL-Elaine	PME	cueing_effect	121	0					1	right	182.322676636	15.1946236018	1.3666111085	761.472447077	u	absent	0
SPC1_104	2015_Apr_09_1629	LL-Elaine	PME	cueing_effect	122	0					1	right	195.357327625	-17.6081342442	1.3666111085	653.207741678	y	present	1
SPC1_104	2015_Apr_09_1629	LL-Elaine	PME	cueing_effect	123	1	dot	left	-200	0	0					780.618942576	u	absent	1
SPC1_104	2015_Apr_09_1629	LL-Elaine	PME	cueing_effect	124	0					1	right	216.438861384	17.6609671408	1.3666111085	871.784677729	y	present	1
SPC1_104	2015_Apr_09_1629	LL-Elaine	PME	cueing_effect	125	1	dot	right	201.528748487	15.7489640249	1	right	201.528748487	15.7489640249	1.3666111085	819.775096374	y	present	1
SPC1_104	2015_Apr_09_1629	LL-Elaine	PME	cueing_effect	126	0					0					771.874684142	u	absent	1
SPC1_104	2015_Apr_09_1629	LL-Elaine	PME	cueing_effect	127	0					1	left	-191.485179501	-16.9962845195	1.3666111085	567.538012052	y	present	1
SPC1_104	2015_Apr_09_1629	LL-Elaine	PME	cueing_effect	128	1	dot	left	-200	0	0					1261.69465529	u	absent	1
SPC1_104	2015_Apr_09_1629	LL-Elaine	PME	cueing_effect	129	0					1	left	-207.251440099	-12.9517078126	1.3666111085	853.820298333	u	absent	0
SPC1_104	2015_Apr_09_1629	LL-Elaine	PME	cueing_effect	130	0					1	left	-183.70479013	-18.1588303531	1.3666111085	1211.52980393	u	absent	0
SPC1_104	2015_Apr_09_1629	LL-Elaine	PME	cueing_effect	131	1	dot	left	-200	0	0					752.809691709	u	absent	1
SPC1_104	2015_Apr_09_1629	LL-Elaine	PME	cueing_effect	132	0					1	right	181.099658133	8.8817418611	1.3666111085	1403.69812399	u	absent	0
SPC1_104	2015_Apr_09_1629	LL-Elaine	PME	cueing_effect	133	1	dot	right	188.518983476	6.38982462836	1	right	188.518983476	6.38982462836	1.3666111085	587.417072849	u	absent	0
SPC1_104	2015_Apr_09_1629	LL-Elaine	PME	cueing_effect	134	1	dot	right	187.257766028	21.479586885	1	right	187.257766028	21.479586885	1.3666111085	544.816609938	y	present	1
SPC1_104	2015_Apr_09_1629	LL-Elaine	PME	cueing_effect	135	1	dot	left	-200	0	0					762.127359863	u	absent	1
SPC1_104	2015_Apr_09_1629	LL-Elaine	PME	cueing_effect	136	0					1	left	-217.796108167	-6.91323340146	1.3666111085	1098.8607211	u	absent	0
SPC1_104	2015_Apr_09_1629	LL-Elaine	PME	cueing_effect	137	0					1	right	207.975080184	18.9413537811	1.3666111085	745.334507897	u	absent	0
SPC1_104	2015_Apr_09_1629	LL-Elaine	PME	cueing_effect	138	0					1	right	183.852930244	-16.9494880899	1.3666111085	567.868837854	y	present	1
SPC1_104	2015_Apr_09_1629	LL-Elaine	PME	cueing_effect	139	0					1	left	-177.124032732	-12.3197828793	1.3666111085	712.311303476	u	absent	0
SPC1_104	2015_Apr_09_1629	LL-Elaine	PME	cueing_effect	140	0					1	right	198.100284209	14.6135954014	1.3666111085	672.222035006	y	present	1
SPC1_104	2015_Apr_09_1629	LL-Elaine	PME	cueing_effect	141	0					0					486.990786158	u	absent	1
SPC1_104	2015_Apr_09_1629	LL-Elaine	PME	cueing_effect	142	0					1	right	188.062791148	-3.08782703805	1.3666111085	609.926374396	y	present	1
SPC1_104	2015_Apr_09_1629	LL-Elaine	PME	cueing_effect	143	0					1	left	-179.395575116	-3.07469916697	1.3666111085	736.064650584	u	absent	0
SPC1_104	2015_Apr_09_1629	LL-Elaine	PME	cueing_effect	144	1	dot	left	-214.335624859	11.9574457085	1	left	-214.335624859	11.9574457085	1.3666111085	420.679652598	y	present	1
SPC1_104	2015_Apr_09_1629	LL-Elaine	PME	cueing_effect	145	1	dot	right	184.959835637	22.4203252085	1	right	184.959835637	22.4203252085	1.3666111085	395.4377505	y	present	1
SPC1_104	2015_Apr_09_1629	LL-Elaine	PME	cueing_effect	146	1	dot	left	-200	0	0					620.170097798	u	absent	1
SPC1_104	2015_Apr_09_1629	LL-Elaine	PME	cueing_effect	147	1	dot	right	180.040866713	16.0145772337	1	right	180.040866713	16.0145772337	1.3666111085	512.308094651	y	present	1
SPC1_104	2015_Apr_09_1629	LL-Elaine	PME	cueing_effect	148	1	dot	left	-205.668648449	-16.5983850061	1	left	-205.668648449	-16.5983850061	1.3666111085	636.98573201	u	absent	0
SPC1_104	2015_Apr_09_1629	LL-Elaine	PME	cueing_effect	149	0					1	right	200.549186972	-9.23536704398	1.3666111085	1044.96597894	u	absent	0
SPC1_104	2015_Apr_09_1629	LL-Elaine	PME	cueing_effect	150	1	dot	right	200	0	0					492.932812776	u	absent	1
SPC1_104	2015_Apr_09_1629	LL-Elaine	PME	cueing_effect	151	0					1	right	209.585917905	19.6083498831	1.3666111085	530.40371323	y	present	1
SPC1_104	2015_Apr_09_1629	LL-Elaine	PME	cueing_effect	152	0					0					1059.00023901	u	absent	1
SPC1_104	2015_Apr_09_1629	LL-Elaine	PME	cueing_effect	153	0					1	right	205.984978786	4.04481296209	1.3666111085	463.567301864	y	present	1
SPC1_104	2015_Apr_09_1629	LL-Elaine	PME	cueing_effect	154	0					1	right	195.327453603	16.6150722426	1.3666111085	586.565140635	u	absent	0
SPC1_104	2015_Apr_09_1629	LL-Elaine	PME	cueing_effect	155	1	dot	left	-210.910772985	-18.6443077224	1	left	-210.910772985	-18.6443077224	1.3666111085	387.184757041	y	present	1
SPC1_104	2015_Apr_09_1629	LL-Elaine	PME	cueing_effect	156	1	dot	right	205.980808593	0.383690194782	1	right	205.980808593	0.383690194782	1.3666111085	355.506675085	y	present	1
SPC1_104	2015_Apr_09_1629	LL-Elaine	PME	cueing_effect	157	1	dot	right	217.203707909	19.3081983273	1	right	217.203707909	19.3081983273	1.3666111085	469.879943412	u	absent	0
SPC1_104	2015_Apr_09_1629	LL-Elaine	PME	cueing_effect	158	1	dot	right	215.160627173	1.40147297283	1	right	215.160627173	1.40147297283	1.3666111085	312.610362191	u	absent	0
SPC1_104	2015_Apr_09_1629	LL-Elaine	PME	cueing_effect	159	1	dot	left	-195.108464258	-11.4629600285	1	left	-195.108464258	-11.4629600285	1.3666111085	395.209926879	y	present	1
SPC1_104	2015_Apr_09_1629	LL-Elaine	PME	cueing_effect	160	1	dot	right	220.627441847	8.82519314972	1	right	220.627441847	8.82519314972	1.3666111085	660.862617427	u	absent	0
SPC1_104	2015_Apr_09_1629	LL-Elaine	PME	cueing_effect	161	0					1	left	-190.505408885	-19.1598009227	1.3666111085	701.130935922	u	absent	0
SPC1_104	2015_Apr_09_1629	LL-Elaine	PME	cueing_effect	162	0					0					494.894342963	u	absent	1
SPC1_104	2015_Apr_09_1629	LL-Elaine	PME	cueing_effect	163	1	dot	right	196.107278634	-14.6145013655	1	right	196.107278634	-14.6145013655	1.3666111085	703.296544496	u	absent	0
SPC1_104	2015_Apr_09_1629	LL-Elaine	PME	cueing_effect	164	0					1	left	-177.091790201	20.1557963311	1.3666111085	619.755522581	y	present	1
SPC1_104	2015_Apr_09_1629	LL-Elaine	PME	cueing_effect	165	0					1	left	-204.482124249	7.36280447974	1.3666111085	518.012029817	y	present	1
SPC1_104	2015_Apr_09_1629	LL-Elaine	PME	cueing_effect	166	0					1	right	180.286029627	0.0977476463157	1.3666111085	745.259422343	u	absent	0
SPC1_104	2015_Apr_09_1629	LL-Elaine	PME	cueing_effect	167	0					1	right	182.240351793	22.9280125144	1.3666111085	561.199058546	u	absent	0
SPC1_104	2015_Apr_09_1629	LL-Elaine	PME	cueing_effect	168	0					0					574.064358603	u	absent	1
SPC1_104	2015_Apr_09_1629	LL-Elaine	PME	cueing_effect	169	0					1	left	-187.769162647	-11.793039151	1.3666111085	461.817230796	y	present	1
SPC1_104	2015_Apr_09_1629	LL-Elaine	PME	cueing_effect	170	1	dot	left	-201.835577263	22.1549512289	1	left	-201.835577263	22.1549512289	1.3666111085	470.000914531	y	present	1
SPC1_104	2015_Apr_09_1629	LL-Elaine	PME	cueing_effect	171	1	dot	right	200	0	0					620.157904224	u	absent	1
SPC1_104	2015_Apr_09_1629	LL-Elaine	PME	cueing_effect	172	0					0					515.783207957	u	absent	1
SPC1_104	2015_Apr_09_1629	LL-Elaine	PME	cueing_effect	173	1	dot	left	-200	0	0					728.63085987	u	absent	1
SPC1_104	2015_Apr_09_1629	LL-Elaine	PME	cueing_effect	174	0					1	right	200.019451231	-10.8803540083	1.3666111085	884.200748056	u	absent	0
SPC1_104	2015_Apr_09_1629	LL-Elaine	PME	cueing_effect	175	1	dot	left	-205.909527811	7.06278939639	1	left	-205.909527811	7.06278939639	1.3666111085	678.348246031	u	absent	0
SPC1_104	2015_Apr_09_1629	LL-Elaine	PME	cueing_effect	176	0					1	right	194.174423393	-22.5586803888	1.3666111085	636.411680607	u	absent	0
SPC1_104	2015_Apr_09_1629	LL-Elaine	PME	cueing_effect	177	0					1	left	-216.340825878	3.46727428511	1.3666111085	572.150960565	y	present	1
SPC1_104	2015_Apr_09_1629	LL-Elaine	PME	cueing_effect	178	0					1	right	182.488376183	-13.1264800445	1.3666111085	744.566966547	u	absent	0
SPC1_104	2015_Apr_09_1629	LL-Elaine	PME	cueing_effect	179	0					1	right	202.352613333	-3.51908614147	1.3666111085	1246.38650776	u	absent	0
SPC1_104	2015_Apr_09_1629	LL-Elaine	PME	cueing_effect	180	0					1	right	198.649461619	20.016466206	1.3666111085	628.045737976	y	present	1
SPC1_104	2015_Apr_09_1629	LL-Elaine	PME	cueing_effect	181	0					1	left	-202.865213852	21.0486874406	1.3666111085	1080.15286643	u	absent	0
SPC1_104	2015_Apr_09_1629	LL-Elaine	PME	cueing_effect	182	1	dot	left	-200	0	0					944.564078469	u	absent	1
SPC1_104	2015_Apr_09_1629	LL-Elaine	PME	cueing_effect	183	1	dot	left	-219.906855143	8.04756188636	1	left	-219.906855143	8.04756188636	1.3666111085	762.326304568	y	present	1
SPC1_104	2015_Apr_09_1629	LL-Elaine	PME	cueing_effect	184	0					1	left	-217.538091583	-13.6941217282	1.3666111085	647.137363208	y	present	1
SPC1_104	2015_Apr_09_1629	LL-Elaine	PME	cueing_effect	185	0					0					534.030922921	u	absent	1
SPC1_104	2015_Apr_09_1629	LL-Elaine	PME	cueing_effect	186	0					1	right	184.284921259	9.41632417878	1.3666111085	569.799563382	u	absent	0
SPC1_104	2015_Apr_09_1629	LL-Elaine	PME	cueing_effect	187	1	dot	right	200	0	0					386.981640942	u	absent	1
SPC1_104	2015_Apr_09_1629	LL-Elaine	PME	cueing_effect	188	1	dot	left	-218.795532769	22.0467533836	1	left	-218.795532769	22.0467533836	1.3666111085	488.786421716	u	absent	0
SPC1_104	2015_Apr_09_1629	LL-Elaine	PME	cueing_effect	189	0					0					925.664338516	u	absent	1
SPC1_104	2015_Apr_09_1629	LL-Elaine	PME	cueing_effect	190	1	dot	right	220.407662541	-11.5585067142	1	right	220.407662541	-11.5585067142	1.3666111085	840.431966586	u	absent	0
SPC1_104	2015_Apr_09_1629	LL-Elaine	PME	cueing_effect	191	1	dot	left	-212.779750523	7.138470483	1	left	-212.779750523	7.138470483	1.3666111085	537.909059785	y	present	1
SPC1_104	2015_Apr_09_1629	LL-Elaine	PME	cueing_effect	192	0					1	left	-179.548770313	22.1572534768	1.3666111085	536.917224526	u	absent	0
SPC1_104	2015_Apr_09_1629	LL-Elaine	PME	cueing_effect	193	0					1	right	216.8304857	-8.18368676069	1.3666111085	736.971132224	y	present	1
SPC1_104	2015_Apr_09_1629	LL-Elaine	PME	cueing_effect	194	0					0					647.403371288	u	absent	1
SPC1_104	2015_Apr_09_1629	LL-Elaine	PME	cueing_effect	195	1	dot	right	202.654510639	-15.2517794556	1	right	202.654510639	-15.2517794556	1.3666111085	497.245419072	y	present	1
SPC1_104	2015_Apr_09_1629	LL-Elaine	PME	cueing_effect	196	0					1	left	-192.94495481	-9.66833447978	1.3666111085	665.411710972	u	absent	0
SPC1_104	2015_Apr_09_1629	LL-Elaine	PME	cueing_effect	197	0					1	left	-208.925600226	1.34906181543	1.3666111085	850.629162276	y	present	1
SPC1_104	2015_Apr_09_1629	LL-Elaine	PME	cueing_effect	198	1	dot	left	-200	0	0					836.260867538	u	absent	1
SPC1_104	2015_Apr_09_1629	LL-Elaine	PME	cueing_effect	199	1	dot	right	202.359969567	-11.640751342	1	right	202.359969567	-11.640751342	1.3666111085	594.502068823	y	present	1
