subj_id	date	computer	experimenter	part	trial_ix	cue_present	cue_type	cue_loc	cue_pos_x	cue_pos_y	target_present	target_loc	target_pos_x	target_pos_y	target_opacity	rt	key	response	is_correct
SPC1_106	2015_Apr_09_1631	LL-George	PME	practice	0	0					1	left	-192.023481756	9.38037355284	1.0	2069.34787985		timeout	0
SPC1_106	2015_Apr_09_1631	LL-George	PME	practice	1	0					1	right	203.894844571	-4.81354424341	1.0	2077.47769868		timeout	0
SPC1_106	2015_Apr_09_1631	LL-George	PME	practice	2	0					1	right	209.827852	3.57507333917	1.0	2070.7821222		timeout	0
SPC1_106	2015_Apr_09_1631	LL-George	PME	practice	3	0					1	left	-185.512284553	15.208001446	1.0	1743.87348164	y	present	1
SPC1_106	2015_Apr_09_1631	LL-George	PME	practice	4	0					1	left	-177.698641704	-7.25770364574	1.0	1610.77387119	u	absent	0
SPC1_106	2015_Apr_09_1631	LL-George	PME	practice	5	0					1	right	208.49941471	5.98922824919	1.0	2077.11134525		timeout	0
SPC1_106	2015_Apr_09_1631	LL-George	PME	practice	6	0					1	left	-190.266473588	10.4570434192	1.0	902.711345349	y	present	1
SPC1_106	2015_Apr_09_1631	LL-George	PME	practice	7	0					0					410.296034534	y	present	0
SPC1_106	2015_Apr_09_1631	LL-George	PME	practice	8	0					0					2062.33105669		timeout	0
SPC1_106	2015_Apr_09_1631	LL-George	PME	practice	9	0					0					929.291955195	y	present	0
SPC1_106	2015_Apr_09_1631	LL-George	PME	practice	10	0					1	left	-222.484997779	-3.49017442567	1.0	685.464863665	y	present	1
SPC1_106	2015_Apr_09_1631	LL-George	PME	practice	11	0					1	right	221.227831337	9.21718842879	1.0	2071.01902366		timeout	0
SPC1_106	2015_Apr_09_1631	LL-George	PME	practice	12	0					1	right	214.134021765	5.98062295409	1.0	1427.56231921	u	absent	0
SPC1_106	2015_Apr_09_1631	LL-George	PME	practice	13	0					1	right	215.142900719	-20.4891195333	1.0	652.046023402	y	present	1
SPC1_106	2015_Apr_09_1631	LL-George	PME	practice	14	0					1	right	187.359871068	-8.12502842453	1.0	727.919321507	u	absent	0
SPC1_106	2015_Apr_09_1631	LL-George	PME	practice	15	0					1	left	-186.12766534	-17.0936830359	1.0	504.528443795	y	present	1
SPC1_106	2015_Apr_09_1631	LL-George	PME	practice	16	0					1	right	222.27217598	-21.5381941829	1.0	1309.87815745	u	absent	0
SPC1_106	2015_Apr_09_1631	LL-George	PME	practice	17	0					1	right	195.984629186	-5.64247463612	1.0	981.665826403	u	absent	0
SPC1_106	2015_Apr_09_1631	LL-George	PME	practice	18	0					1	right	218.503426981	-21.0532369318	1.0	1210.29236773	y	present	1
SPC1_106	2015_Apr_09_1631	LL-George	PME	practice	19	0					1	right	220.229691149	-4.07479536585	1.0	844.204813242	u	absent	0
SPC1_106	2015_Apr_09_1631	LL-George	PME	calibration	0	0					0					1335.46312153	u	absent	1
SPC1_106	2015_Apr_09_1631	LL-George	PME	calibration	1	0					1	right	213.747933116	7.10900545179	0.8	1276.96649078	u	absent	0
SPC1_106	2015_Apr_09_1631	LL-George	PME	calibration	2	0					1	right	202.319496273	3.78376074519	1.0	1294.24377717	u	absent	0
SPC1_106	2015_Apr_09_1631	LL-George	PME	calibration	3	0					1	right	196.349070309	-6.75308738054	1.0	1335.59477469	u	absent	0
SPC1_106	2015_Apr_09_1631	LL-George	PME	calibration	4	0					1	right	197.957727874	-5.83697426583	1.0	1347.45120304	u	absent	0
SPC1_106	2015_Apr_09_1631	LL-George	PME	calibration	5	0					1	left	-210.158401206	-21.5885269417	1.0	406.611597631	y	present	1
SPC1_106	2015_Apr_09_1631	LL-George	PME	calibration	6	0					1	left	-220.5576023	-2.02039406604	1.0	752.591886092	y	present	1
SPC1_106	2015_Apr_09_1631	LL-George	PME	calibration	7	0					1	right	184.003491723	15.9550838922	1.0	1144.00550071	u	absent	0
SPC1_106	2015_Apr_09_1631	LL-George	PME	calibration	8	0					1	right	187.395739546	3.57951321299	1.0	1738.94806346	u	absent	0
SPC1_106	2015_Apr_09_1631	LL-George	PME	calibration	9	0					0					1710.10699077	u	absent	1
SPC1_106	2015_Apr_09_1631	LL-George	PME	calibration	10	0					1	left	-194.681572076	-12.4205897013	1.0	502.977584023	y	present	1
SPC1_106	2015_Apr_09_1631	LL-George	PME	calibration	11	0					1	right	207.177162681	-13.5307333965	1.0	1252.75599398	u	absent	0
SPC1_106	2015_Apr_09_1631	LL-George	PME	calibration	12	0					0					1402.20985562	u	absent	1
SPC1_106	2015_Apr_09_1631	LL-George	PME	calibration	13	0					1	right	204.457021344	-8.13308289131	1.0	1518.98711873	u	absent	0
SPC1_106	2015_Apr_09_1631	LL-George	PME	calibration	14	0					1	right	184.547021313	-0.428898392417	1.0	1602.43025469	u	absent	0
SPC1_106	2015_Apr_09_1631	LL-George	PME	calibration	15	0					1	right	179.457210825	3.02441839965	1.0	970.701627433	u	absent	0
SPC1_106	2015_Apr_09_1631	LL-George	PME	calibration	16	0					1	right	197.000872872	-0.582515187298	1.0	789.790878072	u	absent	0
SPC1_106	2015_Apr_09_1631	LL-George	PME	calibration	17	0					1	left	-197.902677461	-15.8161133363	1.0	631.713225041	y	present	1
SPC1_106	2015_Apr_09_1631	LL-George	PME	calibration	18	0					0					1003.93270655	u	absent	1
SPC1_106	2015_Apr_09_1631	LL-George	PME	calibration	19	0					1	right	221.502561428	8.59312228171	1.0	1402.49443054	u	absent	0
SPC1_106	2015_Apr_09_1631	LL-George	PME	calibration	20	0					1	right	188.465033002	-4.82671676247	1.0	1468.41310989	u	absent	0
SPC1_106	2015_Apr_09_1631	LL-George	PME	calibration	21	0					1	left	-191.728077301	-15.9071981494	1.0	664.897364099	y	present	1
SPC1_106	2015_Apr_09_1631	LL-George	PME	calibration	22	0					1	right	181.584472831	15.2204492794	1.0	1276.47765307	u	absent	0
SPC1_106	2015_Apr_09_1631	LL-George	PME	calibration	23	0					1	right	191.672224368	-17.7266540855	1.0	2069.1795554		timeout	0
SPC1_106	2015_Apr_09_1631	LL-George	PME	calibration	24	0					1	right	211.068988913	-2.5426356964	1.0	1177.19734134	y	present	1
SPC1_106	2015_Apr_09_1631	LL-George	PME	calibration	25	0					1	right	194.7125608	-0.474321477397	1.0	1094.06005032	y	present	1
SPC1_106	2015_Apr_09_1631	LL-George	PME	calibration	26	0					0					1288.90323173	u	absent	1
SPC1_106	2015_Apr_09_1631	LL-George	PME	calibration	27	0					1	left	-204.976454047	8.05237432689	1.0	571.135457605	y	present	1
SPC1_106	2015_Apr_09_1631	LL-George	PME	calibration	28	0					1	left	-215.674574347	-19.6796329268	1.0	1264.58198531	u	absent	0
SPC1_106	2015_Apr_09_1631	LL-George	PME	calibration	29	0					1	right	188.180763029	-23.6181334192	1.0	1301.61558557	u	absent	0
SPC1_106	2015_Apr_09_1631	LL-George	PME	calibration	30	0					1	left	-221.903041949	20.5935008877	1.0	801.920146681	y	present	1
SPC1_106	2015_Apr_09_1631	LL-George	PME	calibration	31	0					1	left	-205.685453719	-2.74532679717	1.0	1012.57666713	u	absent	0
SPC1_106	2015_Apr_09_1631	LL-George	PME	calibration	32	0					0					1685.44652779	u	absent	1
SPC1_106	2015_Apr_09_1631	LL-George	PME	calibration	33	0					1	right	214.79868813	-22.4573189922	1.0	1502.3787301	u	absent	0
SPC1_106	2015_Apr_09_1631	LL-George	PME	calibration	34	0					1	right	221.840189401	22.6683493734	1.0	1027.33935369	u	absent	0
SPC1_106	2015_Apr_09_1631	LL-George	PME	calibration	35	0					1	right	222.683812021	-15.1724093545	1.0	1230.15723145	u	absent	0
SPC1_106	2015_Apr_09_1631	LL-George	PME	calibration	36	0					1	left	-203.292884846	-19.1658433896	1.0	900.308961514	u	absent	0
SPC1_106	2015_Apr_09_1631	LL-George	PME	calibration	37	0					1	right	180.412671283	-22.6186806873	1.0	1053.94490017	u	absent	0
SPC1_106	2015_Apr_09_1631	LL-George	PME	calibration	38	0					1	right	176.114227054	-10.0527375066	1.0	642.073435709	y	present	1
SPC1_106	2015_Apr_09_1631	LL-George	PME	calibration	39	0					1	right	185.874106133	14.4527692616	1.0	1141.96103625	u	absent	0
SPC1_106	2015_Apr_09_1631	LL-George	PME	calibration	40	0					1	right	222.394273049	-12.6129404758	1.0	727.670685388	u	absent	0
SPC1_106	2015_Apr_09_1631	LL-George	PME	calibration	41	0					1	left	-187.814786121	16.3957513002	1.0	1661.47036431	u	absent	0
SPC1_106	2015_Apr_09_1631	LL-George	PME	calibration	42	0					1	left	-195.495483305	-11.5642581445	1.0	527.330002282	y	present	1
SPC1_106	2015_Apr_09_1631	LL-George	PME	calibration	43	0					1	right	206.329770392	19.4143834869	1.0	400.414026808	u	absent	0
SPC1_106	2015_Apr_09_1631	LL-George	PME	calibration	44	0					1	left	-178.135920019	10.6396166592	1.0	456.667064223	y	present	1
SPC1_106	2015_Apr_09_1631	LL-George	PME	calibration	45	0					1	right	192.853098739	-3.6122255668	1.0	1117.40178755	u	absent	0
SPC1_106	2015_Apr_09_1631	LL-George	PME	calibration	46	0					1	right	180.585208974	15.8199962934	1.0	755.927939434	u	absent	0
SPC1_106	2015_Apr_09_1631	LL-George	PME	calibration	47	0					0					1852.07902826	u	absent	1
SPC1_106	2015_Apr_09_1631	LL-George	PME	calibration	48	0					1	right	208.928631541	6.914602991	1.0	844.561998732	u	absent	0
SPC1_106	2015_Apr_09_1631	LL-George	PME	calibration	49	0					0					500.254320446	u	absent	1
SPC1_106	2015_Apr_09_1631	LL-George	PME	calibration	50	0					0					1094.33435742	u	absent	1
SPC1_106	2015_Apr_09_1631	LL-George	PME	calibration	51	0					1	left	-208.379314112	20.7474504237	1.0	586.121109314	y	present	1
SPC1_106	2015_Apr_09_1631	LL-George	PME	calibration	52	0					1	right	200.334923536	-20.8648154881	1.0	452.258354053	u	absent	0
SPC1_106	2015_Apr_09_1631	LL-George	PME	calibration	53	0					1	right	206.920151255	-9.53512209764	1.0	689.313958399	u	absent	0
SPC1_106	2015_Apr_09_1631	LL-George	PME	calibration	54	0					1	right	191.065047981	-3.46128215557	1.0	521.554893348	u	absent	0
SPC1_106	2015_Apr_09_1631	LL-George	PME	calibration	55	0					1	left	-205.045023118	14.9733559219	1.0	435.967545025	u	absent	0
SPC1_106	2015_Apr_09_1631	LL-George	PME	calibration	56	0					1	right	185.970305546	-13.698900883	1.0	708.793398924	u	absent	0
SPC1_106	2015_Apr_09_1631	LL-George	PME	calibration	57	0					1	right	184.204123216	16.9740871035	1.0	460.34159977	u	absent	0
SPC1_106	2015_Apr_09_1631	LL-George	PME	calibration	58	0					1	left	-191.294294025	-2.73603335125	1.0	649.612468667	u	absent	0
SPC1_106	2015_Apr_09_1631	LL-George	PME	calibration	59	0					0					708.409076557	u	absent	1
SPC1_106	2015_Apr_09_1631	LL-George	PME	calibration	60	0					1	right	192.985332256	16.216931429	1.0	536.053174641	u	absent	0
SPC1_106	2015_Apr_09_1631	LL-George	PME	calibration	61	0					1	right	222.038087912	-2.28688022205	1.0	666.902956553	u	absent	0
SPC1_106	2015_Apr_09_1631	LL-George	PME	calibration	62	0					1	left	-206.15308264	13.5679316911	1.0	579.275544267	y	present	1
SPC1_106	2015_Apr_09_1631	LL-George	PME	calibration	63	0					1	left	-189.795499722	7.81106765448	1.0	911.911620293	u	absent	0
SPC1_106	2015_Apr_09_1631	LL-George	PME	calibration	64	0					1	left	-184.873794571	8.38621350679	1.0	769.092459697	u	absent	0
SPC1_106	2015_Apr_09_1631	LL-George	PME	calibration	65	0					1	left	-181.356875675	-0.753265920304	1.0	787.371991668	u	absent	0
SPC1_106	2015_Apr_09_1631	LL-George	PME	calibration	66	0					0					719.273527618	u	absent	1
SPC1_106	2015_Apr_09_1631	LL-George	PME	calibration	67	0					0					535.67251889	u	absent	1
SPC1_106	2015_Apr_09_1631	LL-George	PME	calibration	68	0					1	right	211.443534746	8.68785992484	1.0	552.292275708	u	absent	0
SPC1_106	2015_Apr_09_1631	LL-George	PME	calibration	69	0					1	right	219.81193234	15.0593442685	1.0	554.729864933	u	absent	0
SPC1_106	2015_Apr_09_1631	LL-George	PME	calibration	70	0					1	right	185.260151779	5.87125256179	1.0	319.642814808	u	absent	0
SPC1_106	2015_Apr_09_1631	LL-George	PME	calibration	71	0					0					352.2112309	u	absent	1
SPC1_106	2015_Apr_09_1631	LL-George	PME	calibration	72	0					1	left	-182.200659504	-19.425135396	1.0	423.242356163	y	present	1
SPC1_106	2015_Apr_09_1631	LL-George	PME	calibration	73	0					0					1045.85028626	u	absent	1
SPC1_106	2015_Apr_09_1631	LL-George	PME	calibration	74	0					1	left	-192.476411592	2.47951067821	1.0	494.493146893	y	present	1
SPC1_106	2015_Apr_09_1631	LL-George	PME	calibration	75	0					0					1086.03768051	u	absent	1
SPC1_106	2015_Apr_09_1631	LL-George	PME	calibration	76	0					1	left	-181.091560825	-11.8436097971	1.0	421.117213089	y	present	1
SPC1_106	2015_Apr_09_1631	LL-George	PME	calibration	77	0					0					1512.3381163	u	absent	1
SPC1_106	2015_Apr_09_1631	LL-George	PME	calibration	78	0					1	right	219.959264679	14.1081893017	1.0	1610.71116244	y	present	1
SPC1_106	2015_Apr_09_1631	LL-George	PME	calibration	79	0					1	left	-191.907757354	-4.2156598396	1.0	2002.48012878	u	absent	0
SPC1_106	2015_Apr_09_1631	LL-George	PME	calibration	80	0					1	right	202.147342998	12.5378126821	1.0	1085.112812	u	absent	0
SPC1_106	2015_Apr_09_1631	LL-George	PME	calibration	81	0					1	left	-194.070589939	-23.8266179007	1.0	598.241210449	y	present	1
SPC1_106	2015_Apr_09_1631	LL-George	PME	calibration	82	0					1	right	221.241861604	11.9596323364	1.0	1116.11569999	u	absent	0
SPC1_106	2015_Apr_09_1631	LL-George	PME	calibration	83	0					1	right	213.449472348	18.6134199981	1.0	943.912353832	u	absent	0
SPC1_106	2015_Apr_09_1631	LL-George	PME	calibration	84	0					1	left	-193.637168333	-6.77357841582	1.0	536.379188765	u	absent	0
SPC1_106	2015_Apr_09_1631	LL-George	PME	calibration	85	0					1	left	-198.615086832	2.67218987406	1.0	744.43309661	u	absent	0
SPC1_106	2015_Apr_09_1631	LL-George	PME	calibration	86	0					1	left	-222.953562889	-3.22978912992	1.0	568.999679293	y	present	1
SPC1_106	2015_Apr_09_1631	LL-George	PME	calibration	87	0					1	right	204.687459185	13.6011154275	1.0	669.589181896	u	absent	0
SPC1_106	2015_Apr_09_1631	LL-George	PME	calibration	88	0					0					810.807609465	u	absent	1
SPC1_106	2015_Apr_09_1631	LL-George	PME	calibration	89	0					1	right	187.131796863	-15.3247605713	1.0	1069.27416893	u	absent	0
SPC1_106	2015_Apr_09_1631	LL-George	PME	calibration	90	0					1	left	-220.270625542	11.9631345878	1.0	502.505982295	y	present	1
SPC1_106	2015_Apr_09_1631	LL-George	PME	calibration	91	0					0					577.990556601	u	absent	1
SPC1_106	2015_Apr_09_1631	LL-George	PME	calibration	92	0					1	left	-217.907308029	-15.7098315603	1.0	494.478111155	y	present	1
SPC1_106	2015_Apr_09_1631	LL-George	PME	calibration	93	0					1	right	190.876324034	1.67391710128	1.0	727.200550027	u	absent	0
SPC1_106	2015_Apr_09_1631	LL-George	PME	calibration	94	0					1	left	-210.557319758	18.0948453081	1.0	381.808480248	y	present	1
SPC1_106	2015_Apr_09_1631	LL-George	PME	calibration	95	0					1	left	-218.902354381	-7.17046304627	1.0	458.689892199	y	present	1
SPC1_106	2015_Apr_09_1631	LL-George	PME	calibration	96	0					0					952.791749034	u	absent	1
SPC1_106	2015_Apr_09_1631	LL-George	PME	calibration	97	0					1	left	-177.672444244	2.580546379	1.0	2062.99518654		timeout	0
SPC1_106	2015_Apr_09_1631	LL-George	PME	calibration	98	0					1	right	208.740618671	10.9656901303	1.0	736.760577653	u	absent	0
SPC1_106	2015_Apr_09_1631	LL-George	PME	calibration	99	0					1	left	-187.291182945	-20.3118716673	1.0	481.291588396	u	absent	0
SPC1_106	2015_Apr_09_1631	LL-George	PME	calibration	100	0					1	left	-184.812850883	18.6012940193	1.0	440.080678556	y	present	1
SPC1_106	2015_Apr_09_1631	LL-George	PME	calibration	101	0					1	right	190.3155467	11.6524165821	1.0	1210.71886318	u	absent	0
SPC1_106	2015_Apr_09_1631	LL-George	PME	calibration	102	0					1	right	207.654001394	-16.7028245564	1.0	1392.8863625	u	absent	0
SPC1_106	2015_Apr_09_1631	LL-George	PME	calibration	103	0					1	left	-189.406732718	-14.0854933341	1.0	568.870226853	y	present	1
SPC1_106	2015_Apr_09_1631	LL-George	PME	calibration	104	0					1	right	178.010105021	13.6556507318	1.0	702.619298827	u	absent	0
SPC1_106	2015_Apr_09_1631	LL-George	PME	calibration	105	0					1	right	193.812296088	4.41300191216	1.0	1024.90799921	u	absent	0
SPC1_106	2015_Apr_09_1631	LL-George	PME	calibration	106	0					1	left	-189.303400186	-18.7602099448	1.0	478.675406892	y	present	1
SPC1_106	2015_Apr_09_1631	LL-George	PME	calibration	107	0					0					702.858767007	u	absent	1
SPC1_106	2015_Apr_09_1631	LL-George	PME	calibration	108	0					1	left	-210.236075909	1.33941073704	1.0	567.024524324	y	present	1
SPC1_106	2015_Apr_09_1631	LL-George	PME	calibration	109	0					1	left	-181.552435599	-13.7485785901	1.0	510.480311699	y	present	1
SPC1_106	2015_Apr_09_1631	LL-George	PME	calibration	110	0					1	left	-183.089805476	-18.201640549	1.0	469.176988583	y	present	1
SPC1_106	2015_Apr_09_1631	LL-George	PME	calibration	111	0					1	right	184.619930603	-10.2972006299	1.0	835.720742587	u	absent	0
SPC1_106	2015_Apr_09_1631	LL-George	PME	calibration	112	0					1	left	-187.011774394	-2.91237634613	1.0	379.584322684	y	present	1
SPC1_106	2015_Apr_09_1631	LL-George	PME	calibration	113	0					1	left	-185.973363623	-9.29246808028	1.0	660.653678235	y	present	1
SPC1_106	2015_Apr_09_1631	LL-George	PME	calibration	114	0					1	left	-203.695146137	2.35067387734	1.0	657.760989852	y	present	1
SPC1_106	2015_Apr_09_1631	LL-George	PME	calibration	115	0					1	right	194.652815145	-6.02358464213	1.0	943.66225088	u	absent	0
SPC1_106	2015_Apr_09_1631	LL-George	PME	calibration	116	0					1	left	-207.384475918	-10.3037778082	1.0	391.515195835	y	present	1
SPC1_106	2015_Apr_09_1631	LL-George	PME	calibration	117	0					1	left	-190.954690818	-14.9864131182	1.0	578.982534818	y	present	1
SPC1_106	2015_Apr_09_1631	LL-George	PME	calibration	118	0					0					1770.84831521	u	absent	1
SPC1_106	2015_Apr_09_1631	LL-George	PME	calibration	119	0					1	right	203.267235027	11.2170342002	1.0	874.660921283	u	absent	0
SPC1_106	2015_Apr_09_1631	LL-George	PME	cueing_effect	0	1	dot	right	188.422940441	-12.189417664	1	right	188.422940441	-12.189417664	1.47293342199	2070.74838411		timeout	0
SPC1_106	2015_Apr_09_1631	LL-George	PME	cueing_effect	1	1	dot	right	185.508553332	-6.17615733025	1	right	185.508553332	-6.17615733025	1.47293342199	614.964015782	u	absent	0
SPC1_106	2015_Apr_09_1631	LL-George	PME	cueing_effect	2	1	dot	right	200.547848578	13.4292444836	1	right	200.547848578	13.4292444836	1.47293342199	774.971350096	u	absent	0
SPC1_106	2015_Apr_09_1631	LL-George	PME	cueing_effect	3	1	dot	right	215.478961552	-20.4815611156	1	right	215.478961552	-20.4815611156	1.47293342199	1702.57529244	u	absent	0
SPC1_106	2015_Apr_09_1631	LL-George	PME	cueing_effect	4	1	dot	left	-204.755009846	-23.8580946701	1	left	-204.755009846	-23.8580946701	1.47293342199	941.716433503	u	absent	0
SPC1_106	2015_Apr_09_1631	LL-George	PME	cueing_effect	5	1	dot	right	200	0	0					973.117946181	u	absent	1
SPC1_106	2015_Apr_09_1631	LL-George	PME	cueing_effect	6	0					1	left	-183.409320735	22.4742828852	1.47293342199	462.279716041	y	present	1
SPC1_106	2015_Apr_09_1631	LL-George	PME	cueing_effect	7	1	dot	right	188.174191678	14.1125624524	1	right	188.174191678	14.1125624524	1.47293342199	2077.405822		timeout	0
SPC1_106	2015_Apr_09_1631	LL-George	PME	cueing_effect	8	1	dot	right	191.159966888	-18.0315129607	1	right	191.159966888	-18.0315129607	1.47293342199	1027.01553982	u	absent	0
SPC1_106	2015_Apr_09_1631	LL-George	PME	cueing_effect	9	1	dot	left	-200	0	0					929.123263806	u	absent	1
SPC1_106	2015_Apr_09_1631	LL-George	PME	cueing_effect	10	1	dot	right	179.915218868	13.7322413556	1	right	179.915218868	13.7322413556	1.47293342199	1799.50272711	u	absent	0
SPC1_106	2015_Apr_09_1631	LL-George	PME	cueing_effect	11	1	dot	left	-190.443706799	10.8339348945	1	left	-190.443706799	10.8339348945	1.47293342199	782.831263263	u	absent	0
SPC1_106	2015_Apr_09_1631	LL-George	PME	cueing_effect	12	1	dot	right	200.031946059	5.17402327921	1	right	200.031946059	5.17402327921	1.47293342199	718.196103815	u	absent	0
SPC1_106	2015_Apr_09_1631	LL-George	PME	cueing_effect	13	1	dot	left	-200	0	0					783.547834028	u	absent	1
SPC1_106	2015_Apr_09_1631	LL-George	PME	cueing_effect	14	0					1	left	-186.99589356	14.9834437127	1.47293342199	527.406279929	y	present	1
SPC1_106	2015_Apr_09_1631	LL-George	PME	cueing_effect	15	0					1	left	-190.841838694	0.261907845389	1.47293342199	861.170754302	u	absent	0
SPC1_106	2015_Apr_09_1631	LL-George	PME	cueing_effect	16	1	dot	right	200	0	0					685.640522745	u	absent	1
SPC1_106	2015_Apr_09_1631	LL-George	PME	cueing_effect	17	0					1	left	-206.568247824	-3.94232543025	1.47293342199	502.78322259	y	present	1
SPC1_106	2015_Apr_09_1631	LL-George	PME	cueing_effect	18	0					1	left	-182.959358735	3.40305982233	1.47293342199	561.165436637	y	present	1
SPC1_106	2015_Apr_09_1631	LL-George	PME	cueing_effect	19	0					1	right	216.676707614	12.6945164719	1.47293342199	660.738391336	u	absent	0
SPC1_106	2015_Apr_09_1631	LL-George	PME	cueing_effect	20	1	dot	left	-207.724498117	6.737303931	1	left	-207.724498117	6.737303931	1.47293342199	411.827091128	y	present	1
SPC1_106	2015_Apr_09_1631	LL-George	PME	cueing_effect	21	0					1	right	209.273636187	22.4815796578	1.47293342199	823.063029908	u	absent	0
SPC1_106	2015_Apr_09_1631	LL-George	PME	cueing_effect	22	0					1	right	181.093668819	8.68990155319	1.47293342199	593.687279616	u	absent	0
SPC1_106	2015_Apr_09_1631	LL-George	PME	cueing_effect	23	0					1	right	187.253348793	10.0406706506	1.47293342199	1272.68870035	u	absent	0
SPC1_106	2015_Apr_09_1631	LL-George	PME	cueing_effect	24	1	dot	right	178.94505797	-4.6114218041	1	right	178.94505797	-4.6114218041	1.47293342199	845.932431985	u	absent	0
SPC1_106	2015_Apr_09_1631	LL-George	PME	cueing_effect	25	1	dot	right	198.546036018	-2.93002626596	1	right	198.546036018	-2.93002626596	1.47293342199	752.796149347	u	absent	0
SPC1_106	2015_Apr_09_1631	LL-George	PME	cueing_effect	26	0					0					441.593398806	u	absent	1
SPC1_106	2015_Apr_09_1631	LL-George	PME	cueing_effect	27	1	dot	left	-189.609249594	-1.71733203682	1	left	-189.609249594	-1.71733203682	1.47293342199	552.929635625	y	present	1
SPC1_106	2015_Apr_09_1631	LL-George	PME	cueing_effect	28	1	dot	right	222.130349243	20.1883992784	1	right	222.130349243	20.1883992784	1.47293342199	2068.92541843		timeout	0
SPC1_106	2015_Apr_09_1631	LL-George	PME	cueing_effect	29	1	dot	right	221.81476656	3.2427746215	1	right	221.81476656	3.2427746215	1.47293342199	0.0	u	absent	0
SPC1_106	2015_Apr_09_1631	LL-George	PME	cueing_effect	30	0					1	right	187.733047182	-16.6144272505	1.47293342199	944.120650645	u	absent	0
SPC1_106	2015_Apr_09_1631	LL-George	PME	cueing_effect	31	0					1	right	195.669102435	-4.93671021663	1.47293342199	679.466055706	u	absent	0
SPC1_106	2015_Apr_09_1631	LL-George	PME	cueing_effect	32	1	dot	left	-193.126795448	-9.30999782848	1	left	-193.126795448	-9.30999782848	1.47293342199	545.986889862	y	present	1
SPC1_106	2015_Apr_09_1631	LL-George	PME	cueing_effect	33	1	dot	right	192.038798385	22.613337116	1	right	192.038798385	22.613337116	1.47293342199	1488.75140958	u	absent	0
SPC1_106	2015_Apr_09_1631	LL-George	PME	cueing_effect	34	1	dot	right	200	0	0					1444.09479713	u	absent	1
SPC1_106	2015_Apr_09_1631	LL-George	PME	cueing_effect	35	1	dot	right	222.118491467	-17.6159407979	1	right	222.118491467	-17.6159407979	1.47293342199	567.029658705	u	absent	0
SPC1_106	2015_Apr_09_1631	LL-George	PME	cueing_effect	36	1	dot	left	-200	0	0					262.737015728	u	absent	1
SPC1_106	2015_Apr_09_1631	LL-George	PME	cueing_effect	37	1	dot	right	189.73364864	-9.66610474118	1	right	189.73364864	-9.66610474118	1.47293342199	880.702269264	u	absent	0
SPC1_106	2015_Apr_09_1631	LL-George	PME	cueing_effect	38	0					0					860.84584007	u	absent	1
SPC1_106	2015_Apr_09_1631	LL-George	PME	cueing_effect	39	1	dot	left	-200	0	0					1019.45340354	u	absent	1
SPC1_106	2015_Apr_09_1631	LL-George	PME	cueing_effect	40	0					1	right	178.998297271	-15.6095153902	1.47293342199	1071.98863197	u	absent	0
SPC1_106	2015_Apr_09_1631	LL-George	PME	cueing_effect	41	0					0					691.404629964	u	absent	1
SPC1_106	2015_Apr_09_1631	LL-George	PME	cueing_effect	42	0					1	right	203.925223442	-0.777927480007	1.47293342199	851.594590582	u	absent	0
SPC1_106	2015_Apr_09_1631	LL-George	PME	cueing_effect	43	1	dot	left	-181.956773589	-19.9165725224	1	left	-181.956773589	-19.9165725224	1.47293342199	519.054962322	u	absent	0
SPC1_106	2015_Apr_09_1631	LL-George	PME	cueing_effect	44	0					1	left	-206.070191036	-6.24331512918	1.47293342199	619.451570325	y	present	1
SPC1_106	2015_Apr_09_1631	LL-George	PME	cueing_effect	45	1	dot	right	200	0	0					652.933852747	u	absent	1
SPC1_106	2015_Apr_09_1631	LL-George	PME	cueing_effect	46	0					0					532.9708918	u	absent	1
SPC1_106	2015_Apr_09_1631	LL-George	PME	cueing_effect	47	0					1	left	-203.093444485	2.54813069077	1.47293342199	502.942012157	y	present	1
SPC1_106	2015_Apr_09_1631	LL-George	PME	cueing_effect	48	1	dot	left	-186.211501441	17.5874810558	1	left	-186.211501441	17.5874810558	1.47293342199	516.635342501	u	absent	0
SPC1_106	2015_Apr_09_1631	LL-George	PME	cueing_effect	49	0					1	left	-186.030594061	-11.9232707498	1.47293342199	421.218427829	u	absent	0
SPC1_106	2015_Apr_09_1631	LL-George	PME	cueing_effect	50	0					1	left	-179.975290891	-15.6595410683	1.47293342199	375.367041212	y	present	1
SPC1_106	2015_Apr_09_1631	LL-George	PME	cueing_effect	51	1	dot	left	-194.279243754	3.41342080128	1	left	-194.279243754	3.41342080128	1.47293342199	564.920650795	u	absent	0
SPC1_106	2015_Apr_09_1631	LL-George	PME	cueing_effect	52	1	dot	left	-193.083747423	13.9539702941	1	left	-193.083747423	13.9539702941	1.47293342199	439.622644801	y	present	1
SPC1_106	2015_Apr_09_1631	LL-George	PME	cueing_effect	53	0					0					519.643181469	u	absent	1
SPC1_106	2015_Apr_09_1631	LL-George	PME	cueing_effect	54	0					1	left	-208.094314213	17.0274163518	1.47293342199	469.146183692	y	present	1
SPC1_106	2015_Apr_09_1631	LL-George	PME	cueing_effect	55	1	dot	right	200	0	0					794.131010771	u	absent	1
SPC1_106	2015_Apr_09_1631	LL-George	PME	cueing_effect	56	1	dot	left	-200	0	0					993.983222172	u	absent	1
SPC1_106	2015_Apr_09_1631	LL-George	PME	cueing_effect	57	0					1	right	215.339565821	-11.3240422729	1.47293342199	694.214072544	u	absent	0
SPC1_106	2015_Apr_09_1631	LL-George	PME	cueing_effect	58	0					1	right	217.329120241	-0.752921396107	1.47293342199	796.241485048	u	absent	0
SPC1_106	2015_Apr_09_1631	LL-George	PME	cueing_effect	59	1	dot	left	-200	0	0					985.319091938	u	absent	1
SPC1_106	2015_Apr_09_1631	LL-George	PME	cueing_effect	60	1	dot	right	187.868502033	-16.5902809662	1	right	187.868502033	-16.5902809662	1.47293342199	935.686454177	u	absent	0
SPC1_106	2015_Apr_09_1631	LL-George	PME	cueing_effect	61	0					0					672.589686234	u	absent	1
SPC1_106	2015_Apr_09_1631	LL-George	PME	cueing_effect	62	0					1	right	218.795317498	-10.263531601	1.47293342199	910.608663689	u	absent	0
SPC1_106	2015_Apr_09_1631	LL-George	PME	cueing_effect	63	0					0					831.609443296	u	absent	1
SPC1_106	2015_Apr_09_1631	LL-George	PME	cueing_effect	64	1	dot	left	-200	0	0					485.673527233	u	absent	1
SPC1_106	2015_Apr_09_1631	LL-George	PME	cueing_effect	65	1	dot	right	201.730843899	7.71614409797	1	right	201.730843899	7.71614409797	1.47293342199	635.369791184	u	absent	0
SPC1_106	2015_Apr_09_1631	LL-George	PME	cueing_effect	66	1	dot	right	217.642565662	4.49885746175	1	right	217.642565662	4.49885746175	1.47293342199	1035.546917	u	absent	0
SPC1_106	2015_Apr_09_1631	LL-George	PME	cueing_effect	67	1	dot	left	-194.296806477	9.14149234928	1	left	-194.296806477	9.14149234928	1.47293342199	599.649415351	y	present	1
SPC1_106	2015_Apr_09_1631	LL-George	PME	cueing_effect	68	0					1	left	-200.965896454	16.6280305048	1.47293342199	1104.0319046	u	absent	0
SPC1_106	2015_Apr_09_1631	LL-George	PME	cueing_effect	69	1	dot	left	-200	0	0					944.550080225	u	absent	1
SPC1_106	2015_Apr_09_1631	LL-George	PME	cueing_effect	70	1	dot	left	-193.849567841	15.2319427063	1	left	-193.849567841	15.2319427063	1.47293342199	635.552051011	y	present	1
SPC1_106	2015_Apr_09_1631	LL-George	PME	cueing_effect	71	1	dot	right	210.669290314	10.9361484783	1	right	210.669290314	10.9361484783	1.47293342199	910.100756213	u	absent	0
SPC1_106	2015_Apr_09_1631	LL-George	PME	cueing_effect	72	1	dot	left	-200	0	0					1535.56580329	u	absent	1
SPC1_106	2015_Apr_09_1631	LL-George	PME	cueing_effect	73	0					1	left	-208.897141031	2.5082920906	1.47293342199	537.691313308	y	present	1
SPC1_106	2015_Apr_09_1631	LL-George	PME	cueing_effect	74	1	dot	right	215.930820959	-7.36563126943	1	right	215.930820959	-7.36563126943	1.47293342199	1086.03658061	u	absent	0
SPC1_106	2015_Apr_09_1631	LL-George	PME	cueing_effect	75	1	dot	left	-200	0	0					860.961356666	u	absent	1
SPC1_106	2015_Apr_09_1631	LL-George	PME	cueing_effect	76	1	dot	right	180.021543162	-3.80928832229	1	right	180.021543162	-3.80928832229	1.47293342199	662.951180246	u	absent	0
SPC1_106	2015_Apr_09_1631	LL-George	PME	cueing_effect	77	1	dot	left	-181.262965527	22.2214604124	1	left	-181.262965527	22.2214604124	1.47293342199	381.948200986	u	absent	0
SPC1_106	2015_Apr_09_1631	LL-George	PME	cueing_effect	78	1	dot	right	208.485673594	3.88304214614	1	right	208.485673594	3.88304214614	1.47293342199	564.732523635	u	absent	0
SPC1_106	2015_Apr_09_1631	LL-George	PME	cueing_effect	79	0					1	left	-180.267965048	-18.384231229	1.47293342199	819.177629892	u	absent	0
SPC1_106	2015_Apr_09_1631	LL-George	PME	cueing_effect	80	1	dot	left	-183.094550907	17.14070194	1	left	-183.094550907	17.14070194	1.47293342199	1216.23176709	u	absent	0
SPC1_106	2015_Apr_09_1631	LL-George	PME	cueing_effect	81	0					1	right	210.7584046	-16.6105034116	1.47293342199	760.795048904	u	absent	0
SPC1_106	2015_Apr_09_1631	LL-George	PME	cueing_effect	82	0					1	right	191.083409462	19.7694980165	1.47293342199	1035.54985113	u	absent	0
SPC1_106	2015_Apr_09_1631	LL-George	PME	cueing_effect	83	0					1	right	214.384761395	15.0702297065	1.47293342199	648.038139101	u	absent	0
SPC1_106	2015_Apr_09_1631	LL-George	PME	cueing_effect	84	0					1	right	179.075852595	-15.9083622836	1.47293342199	385.641072877	u	absent	0
SPC1_106	2015_Apr_09_1631	LL-George	PME	cueing_effect	85	1	dot	left	-177.291477104	-14.2112280302	1	left	-177.291477104	-14.2112280302	1.47293342199	477.021866012	u	absent	0
SPC1_106	2015_Apr_09_1631	LL-George	PME	cueing_effect	86	0					1	left	-189.95396453	18.9255205921	1.47293342199	108.246985823	u	absent	0
SPC1_106	2015_Apr_09_1631	LL-George	PME	cueing_effect	87	1	dot	left	-194.222983991	5.51593798903	1	left	-194.222983991	5.51593798903	1.47293342199	408.045839984	y	present	1
SPC1_106	2015_Apr_09_1631	LL-George	PME	cueing_effect	88	1	dot	left	-196.893497666	16.2713034311	1	left	-196.893497666	16.2713034311	1.47293342199	444.409810007	y	present	1
SPC1_106	2015_Apr_09_1631	LL-George	PME	cueing_effect	89	0					1	left	-223.445135406	10.957194628	1.47293342199	961.148200557	u	absent	0
SPC1_106	2015_Apr_09_1631	LL-George	PME	cueing_effect	90	1	dot	left	-219.105049781	-13.6575218271	1	left	-219.105049781	-13.6575218271	1.47293342199	389.739170205	y	present	1
SPC1_106	2015_Apr_09_1631	LL-George	PME	cueing_effect	91	1	dot	right	220.870391585	-4.48774429037	1	right	220.870391585	-4.48774429037	1.47293342199	1194.11780871	u	absent	0
SPC1_106	2015_Apr_09_1631	LL-George	PME	cueing_effect	92	0					1	left	-180.005579398	5.50742947185	1.47293342199	531.612193678	u	absent	0
SPC1_106	2015_Apr_09_1631	LL-George	PME	cueing_effect	93	1	dot	right	179.579713548	-4.76926561526	1	right	179.579713548	-4.76926561526	1.47293342199	1260.40797634	u	absent	0
SPC1_106	2015_Apr_09_1631	LL-George	PME	cueing_effect	94	1	dot	right	222.945812341	-12.2589114884	1	right	222.945812341	-12.2589114884	1.47293342199	1291.65216582	u	absent	0
SPC1_106	2015_Apr_09_1631	LL-George	PME	cueing_effect	95	0					1	left	-223.269627672	9.64065208812	1.47293342199	1682.45775858	u	absent	0
SPC1_106	2015_Apr_09_1631	LL-George	PME	cueing_effect	96	1	dot	left	-210.017111525	4.27030737011	1	left	-210.017111525	4.27030737011	1.47293342199	1287.42388263	u	absent	0
SPC1_106	2015_Apr_09_1631	LL-George	PME	cueing_effect	97	0					1	right	202.389541696	15.6444277309	1.47293342199	1044.23818504	u	absent	0
SPC1_106	2015_Apr_09_1631	LL-George	PME	cueing_effect	98	0					1	right	194.294239987	20.9403479654	1.47293342199	1760.81998646	u	absent	0
SPC1_106	2015_Apr_09_1631	LL-George	PME	cueing_effect	99	0					1	right	198.939586643	-6.05077971888	1.47293342199	1796.08856281	u	absent	0
SPC1_106	2015_Apr_09_1631	LL-George	PME	cueing_effect	100	1	dot	right	214.596111933	-11.6557710145	1	right	214.596111933	-11.6557710145	1.47293342199	1502.26541376	u	absent	0
SPC1_106	2015_Apr_09_1631	LL-George	PME	cueing_effect	101	1	dot	left	-212.22267177	4.51415702958	1	left	-212.22267177	4.51415702958	1.47293342199	564.224249218	y	present	1
SPC1_106	2015_Apr_09_1631	LL-George	PME	cueing_effect	102	0					1	left	-201.342126945	-3.69970909904	1.47293342199	1994.13687829	u	absent	0
SPC1_106	2015_Apr_09_1631	LL-George	PME	cueing_effect	103	0					0					1968.65569567	u	absent	1
SPC1_106	2015_Apr_09_1631	LL-George	PME	cueing_effect	104	1	dot	right	196.062213396	2.61381370619	1	right	196.062213396	2.61381370619	1.47293342199	2062.95301393		timeout	0
SPC1_106	2015_Apr_09_1631	LL-George	PME	cueing_effect	105	1	dot	right	193.152237501	-13.8988634131	1	right	193.152237501	-13.8988634131	1.47293342199	0.0	u	absent	0
SPC1_106	2015_Apr_09_1631	LL-George	PME	cueing_effect	106	0					0					0.0	u	absent	1
SPC1_106	2015_Apr_09_1631	LL-George	PME	cueing_effect	107	0					1	left	-203.960770678	12.4449924039	1.47293342199	527.753930539	y	present	1
SPC1_106	2015_Apr_09_1631	LL-George	PME	cueing_effect	108	1	dot	right	200	0	0					791.910153348	u	absent	1
SPC1_106	2015_Apr_09_1631	LL-George	PME	cueing_effect	109	0					1	right	177.401769377	-11.4928882697	1.47293342199	560.731973499	u	absent	0
SPC1_106	2015_Apr_09_1631	LL-George	PME	cueing_effect	110	0					1	left	-196.599244163	-11.0183414921	1.47293342199	868.861242663	u	absent	0
SPC1_106	2015_Apr_09_1631	LL-George	PME	cueing_effect	111	0					1	left	-218.407110299	14.4771162532	1.47293342199	311.060462613	u	absent	0
SPC1_106	2015_Apr_09_1631	LL-George	PME	cueing_effect	112	1	dot	left	-186.134128552	-8.15582108459	1	left	-186.134128552	-8.15582108459	1.47293342199	616.806050763	u	absent	0
SPC1_106	2015_Apr_09_1631	LL-George	PME	cueing_effect	113	0					1	right	185.92202535	-13.8174677366	1.47293342199	660.548062995	u	absent	0
SPC1_106	2015_Apr_09_1631	LL-George	PME	cueing_effect	114	0					0					1512.15438917	u	absent	1
SPC1_106	2015_Apr_09_1631	LL-George	PME	cueing_effect	115	1	dot	left	-209.818981133	13.333175722	1	left	-209.818981133	13.333175722	1.47293342199	0.0	y	present	1
SPC1_106	2015_Apr_09_1631	LL-George	PME	cueing_effect	116	1	dot	right	215.430943017	-0.927072762191	1	right	215.430943017	-0.927072762191	1.47293342199	0.0	u	absent	0
SPC1_106	2015_Apr_09_1631	LL-George	PME	cueing_effect	117	0					0					386.025395244	u	absent	1
SPC1_106	2015_Apr_09_1631	LL-George	PME	cueing_effect	118	1	dot	left	-203.605359645	-5.20689478431	1	left	-203.605359645	-5.20689478431	1.47293342199	390.011276584	y	present	1
SPC1_106	2015_Apr_09_1631	LL-George	PME	cueing_effect	119	0					0					943.898784928	u	absent	1
SPC1_106	2015_Apr_09_1631	LL-George	PME	cueing_effect	120	0					0					737.359798048	u	absent	1
SPC1_106	2015_Apr_09_1631	LL-George	PME	cueing_effect	121	1	dot	left	-186.068402338	10.2898561264	1	left	-186.068402338	10.2898561264	1.47293342199	383.834608831	u	absent	0
SPC1_106	2015_Apr_09_1631	LL-George	PME	cueing_effect	122	1	dot	right	200	0	0					2035.4115977	u	absent	1
SPC1_106	2015_Apr_09_1631	LL-George	PME	cueing_effect	123	0					1	right	213.47890919	18.0809046993	1.47293342199	1093.77767611	u	absent	0
SPC1_106	2015_Apr_09_1631	LL-George	PME	cueing_effect	124	0					1	left	-202.237781232	9.59402585983	1.47293342199	1165.97387102	u	absent	0
SPC1_106	2015_Apr_09_1631	LL-George	PME	cueing_effect	125	0					1	right	200.168642938	19.4657145972	1.47293342199	1485.79161102	y	present	1
SPC1_106	2015_Apr_09_1631	LL-George	PME	cueing_effect	126	1	dot	right	209.123313615	20.2759976629	1	right	209.123313615	20.2759976629	1.47293342199	877.098876983	u	absent	0
SPC1_106	2015_Apr_09_1631	LL-George	PME	cueing_effect	127	1	dot	right	176.924605647	-11.0791415288	1	right	176.924605647	-11.0791415288	1.47293342199	1161.0378176	u	absent	0
SPC1_106	2015_Apr_09_1631	LL-George	PME	cueing_effect	128	1	dot	left	-185.428328735	16.1777198867	1	left	-185.428328735	16.1777198867	1.47293342199	389.368783217	y	present	1
SPC1_106	2015_Apr_09_1631	LL-George	PME	cueing_effect	129	0					1	right	197.124829482	-6.25842912232	1.47293342199	685.409122147	u	absent	0
SPC1_106	2015_Apr_09_1631	LL-George	PME	cueing_effect	130	1	dot	right	184.508409963	-18.1137537094	1	right	184.508409963	-18.1137537094	1.47293342199	549.913362134	u	absent	0
SPC1_106	2015_Apr_09_1631	LL-George	PME	cueing_effect	131	0					0					619.363924023	u	absent	1
SPC1_106	2015_Apr_09_1631	LL-George	PME	cueing_effect	132	0					1	right	187.200775074	5.3922711869	1.47293342199	689.362731762	u	absent	0
SPC1_106	2015_Apr_09_1631	LL-George	PME	cueing_effect	133	1	dot	right	201.190397458	-18.2036891991	1	right	201.190397458	-18.2036891991	1.47293342199	468.80953433	u	absent	0
SPC1_106	2015_Apr_09_1631	LL-George	PME	cueing_effect	134	0					1	left	-207.931607383	9.12906062184	1.47293342199	460.241118446	y	present	1
SPC1_106	2015_Apr_09_1631	LL-George	PME	cueing_effect	135	1	dot	left	-219.251593052	22.5477479766	1	left	-219.251593052	22.5477479766	1.47293342199	511.123538483	u	absent	0
SPC1_106	2015_Apr_09_1631	LL-George	PME	cueing_effect	136	0					1	left	-222.906371792	9.19071841541	1.47293342199	360.901764594	u	absent	0
SPC1_106	2015_Apr_09_1631	LL-George	PME	cueing_effect	137	1	dot	left	-200	0	0					616.991244722	u	absent	1
SPC1_106	2015_Apr_09_1631	LL-George	PME	cueing_effect	138	0					1	right	178.735236124	0.807145387325	1.47293342199	552.444098052	u	absent	0
SPC1_106	2015_Apr_09_1631	LL-George	PME	cueing_effect	139	0					1	right	195.361852915	14.1944505866	1.47293342199	571.413064376	u	absent	0
SPC1_106	2015_Apr_09_1631	LL-George	PME	cueing_effect	140	1	dot	left	-193.638529207	6.17879886184	1	left	-193.638529207	6.17879886184	1.47293342199	489.489983767	y	present	1
SPC1_106	2015_Apr_09_1631	LL-George	PME	cueing_effect	141	1	dot	left	-186.433520099	8.31503342656	1	left	-186.433520099	8.31503342656	1.47293342199	558.189869393	y	present	1
SPC1_106	2015_Apr_09_1631	LL-George	PME	cueing_effect	142	1	dot	left	-191.685730589	16.0193040026	1	left	-191.685730589	16.0193040026	1.47293342199	677.871556487	u	absent	0
SPC1_106	2015_Apr_09_1631	LL-George	PME	cueing_effect	143	0					1	right	186.473615823	9.90175176825	1.47293342199	893.807746936	u	absent	0
SPC1_106	2015_Apr_09_1631	LL-George	PME	cueing_effect	144	0					1	right	209.730072493	18.3614060299	1.47293342199	594.293100759	u	absent	0
SPC1_106	2015_Apr_09_1631	LL-George	PME	cueing_effect	145	0					1	left	-222.489392752	-22.2348694942	1.47293342199	544.027504046	y	present	1
SPC1_106	2015_Apr_09_1631	LL-George	PME	cueing_effect	146	1	dot	right	200	0	0					644.141370896	u	absent	1
SPC1_106	2015_Apr_09_1631	LL-George	PME	cueing_effect	147	0					1	right	205.697347569	19.9889014416	1.47293342199	819.176896475	u	absent	0
SPC1_106	2015_Apr_09_1631	LL-George	PME	cueing_effect	148	0					1	left	-208.865920518	-3.79398405302	1.47293342199	515.347421169	y	present	1
SPC1_106	2015_Apr_09_1631	LL-George	PME	cueing_effect	149	1	dot	right	198.212945587	14.4831682138	1	right	198.212945587	14.4831682138	1.47293342199	573.311941233	u	absent	0
SPC1_106	2015_Apr_09_1631	LL-George	PME	cueing_effect	150	1	dot	right	193.934085097	15.9869444041	1	right	193.934085097	15.9869444041	1.47293342199	626.950996928	u	absent	0
SPC1_106	2015_Apr_09_1631	LL-George	PME	cueing_effect	151	1	dot	left	-201.458467651	-1.21757204796	1	left	-201.458467651	-1.21757204796	1.47293342199	852.496722713	u	absent	0
SPC1_106	2015_Apr_09_1631	LL-George	PME	cueing_effect	152	0					1	right	184.494222453	10.0634662531	1.47293342199	702.514783479	u	absent	0
SPC1_106	2015_Apr_09_1631	LL-George	PME	cueing_effect	153	1	dot	left	-216.752113446	10.7629281378	1	left	-216.752113446	10.7629281378	1.47293342199	506.618748419	y	present	1
SPC1_106	2015_Apr_09_1631	LL-George	PME	cueing_effect	154	0					1	left	-198.785773425	-9.01827664814	1.47293342199	485.542975366	y	present	1
SPC1_106	2015_Apr_09_1631	LL-George	PME	cueing_effect	155	1	dot	right	217.422046035	-1.2043761202	1	right	217.422046035	-1.2043761202	1.47293342199	720.077744685	u	absent	0
SPC1_106	2015_Apr_09_1631	LL-George	PME	cueing_effect	156	0					1	left	-214.020383038	-7.60800733068	1.47293342199	327.646114863	u	absent	0
SPC1_106	2015_Apr_09_1631	LL-George	PME	cueing_effect	157	1	dot	right	203.097744585	-20.5259630232	1	right	203.097744585	-20.5259630232	1.47293342199	737.185239792	u	absent	0
SPC1_106	2015_Apr_09_1631	LL-George	PME	cueing_effect	158	1	dot	right	184.331072218	-3.37305866255	1	right	184.331072218	-3.37305866255	1.47293342199	864.048406947	u	absent	0
SPC1_106	2015_Apr_09_1631	LL-George	PME	cueing_effect	159	1	dot	right	188.965084962	8.14489525874	1	right	188.965084962	8.14489525874	1.47293342199	452.405409422	u	absent	0
SPC1_106	2015_Apr_09_1631	LL-George	PME	cueing_effect	160	0					1	left	-209.841023096	4.24182797943	1.47293342199	611.062113196	y	present	1
SPC1_106	2015_Apr_09_1631	LL-George	PME	cueing_effect	161	0					1	right	190.483025344	19.1246371567	1.47293342199	844.552463852	u	absent	0
SPC1_106	2015_Apr_09_1631	LL-George	PME	cueing_effect	162	1	dot	right	203.010624261	13.1915942759	1	right	203.010624261	13.1915942759	1.47293342199	0.0	u	absent	0
SPC1_106	2015_Apr_09_1631	LL-George	PME	cueing_effect	163	0					1	right	209.053081083	19.9459045919	1.47293342199	611.364290584	u	absent	0
SPC1_106	2015_Apr_09_1631	LL-George	PME	cueing_effect	164	1	dot	left	-177.083759423	-20.1682548359	1	left	-177.083759423	-20.1682548359	1.47293342199	395.679303445	u	absent	0
SPC1_106	2015_Apr_09_1631	LL-George	PME	cueing_effect	165	1	dot	right	193.258400353	-20.9188687143	1	right	193.258400353	-20.9188687143	1.47293342199	377.346596215	u	absent	0
SPC1_106	2015_Apr_09_1631	LL-George	PME	cueing_effect	166	0					0					297.929681372	u	absent	1
SPC1_106	2015_Apr_09_1631	LL-George	PME	cueing_effect	167	1	dot	left	-197.026035003	-2.42137883091	1	left	-197.026035003	-2.42137883091	1.47293342199	11.3628236577	u	absent	0
SPC1_106	2015_Apr_09_1631	LL-George	PME	cueing_effect	168	0					1	left	-223.200116456	14.8693502086	1.47293342199	335.93545761	u	absent	0
SPC1_106	2015_Apr_09_1631	LL-George	PME	cueing_effect	169	1	dot	left	-218.005587026	14.9413332875	1	left	-218.005587026	14.9413332875	1.47293342199	402.604813222	y	present	1
SPC1_106	2015_Apr_09_1631	LL-George	PME	cueing_effect	170	1	dot	right	180.090398257	-2.4202250044	1	right	180.090398257	-2.4202250044	1.47293342199	719.223286957	u	absent	0
SPC1_106	2015_Apr_09_1631	LL-George	PME	cueing_effect	171	0					0					544.407425914	u	absent	1
SPC1_106	2015_Apr_09_1631	LL-George	PME	cueing_effect	172	1	dot	left	-200	0	0					494.628099725	u	absent	1
SPC1_106	2015_Apr_09_1631	LL-George	PME	cueing_effect	173	0					1	left	-223.995604067	0.493913346755	1.47293342199	402.639285196	y	present	1
SPC1_106	2015_Apr_09_1631	LL-George	PME	cueing_effect	174	1	dot	right	179.172937658	21.3117905818	1	right	179.172937658	21.3117905818	1.47293342199	952.070410363	u	absent	0
SPC1_106	2015_Apr_09_1631	LL-George	PME	cueing_effect	175	1	dot	right	188.273761531	6.87875864384	1	right	188.273761531	6.87875864384	1.47293342199	669.472564943	u	absent	0
SPC1_106	2015_Apr_09_1631	LL-George	PME	cueing_effect	176	1	dot	left	-178.547241802	-4.23674591471	1	left	-178.547241802	-4.23674591471	1.47293342199	527.062663343	y	present	1
SPC1_106	2015_Apr_09_1631	LL-George	PME	cueing_effect	177	0					1	left	-212.295843028	4.65346358832	1.47293342199	439.66225069	y	present	1
SPC1_106	2015_Apr_09_1631	LL-George	PME	cueing_effect	178	0					1	right	200.896428461	-3.60381631882	1.47293342199	300.145404413	u	absent	0
SPC1_106	2015_Apr_09_1631	LL-George	PME	cueing_effect	179	1	dot	right	200	0	0					535.895118024	u	absent	1
SPC1_106	2015_Apr_09_1631	LL-George	PME	cueing_effect	180	0					0					754.661288112	u	absent	1
SPC1_106	2015_Apr_09_1631	LL-George	PME	cueing_effect	181	0					1	left	-187.904024795	-23.5063495965	1.47293342199	440.090946387	y	present	1
SPC1_106	2015_Apr_09_1631	LL-George	PME	cueing_effect	182	0					1	left	-199.436751823	15.4203437332	1.47293342199	494.313820731	y	present	1
SPC1_106	2015_Apr_09_1631	LL-George	PME	cueing_effect	183	0					1	left	-178.617631984	5.74535277476	1.47293342199	429.182122461	y	present	1
SPC1_106	2015_Apr_09_1631	LL-George	PME	cueing_effect	184	1	dot	right	200	0	0					522.940728813	u	absent	1
SPC1_106	2015_Apr_09_1631	LL-George	PME	cueing_effect	185	0					1	right	192.65992105	-3.30493929884	1.47293342199	510.936878156	u	absent	0
SPC1_106	2015_Apr_09_1631	LL-George	PME	cueing_effect	186	0					0					652.345634066	u	absent	1
SPC1_106	2015_Apr_09_1631	LL-George	PME	cueing_effect	187	0					1	right	180.455420844	20.344714087	1.47293342199	752.59298645	u	absent	0
SPC1_106	2015_Apr_09_1631	LL-George	PME	cueing_effect	188	1	dot	left	-190.417506909	18.7308222628	1	left	-190.417506909	18.7308222628	1.47293342199	536.109282635	y	present	1
SPC1_106	2015_Apr_09_1631	LL-George	PME	cueing_effect	189	1	dot	right	179.520174671	9.58188896672	1	right	179.520174671	9.58188896672	1.47293342199	485.992573667	u	absent	0
SPC1_106	2015_Apr_09_1631	LL-George	PME	cueing_effect	190	0					1	right	185.039056923	-18.2931647642	1.47293342199	1033.67994493	u	absent	0
SPC1_106	2015_Apr_09_1631	LL-George	PME	cueing_effect	191	1	dot	left	-191.635100461	20.7399121742	1	left	-191.635100461	20.7399121742	1.47293342199	1268.77396274	u	absent	0
SPC1_106	2015_Apr_09_1631	LL-George	PME	cueing_effect	192	1	dot	right	200	0	0					694.515883457	u	absent	1
SPC1_106	2015_Apr_09_1631	LL-George	PME	cueing_effect	193	1	dot	left	-194.086692235	15.6263970266	1	left	-194.086692235	15.6263970266	1.47293342199	441.66600937	u	absent	0
SPC1_106	2015_Apr_09_1631	LL-George	PME	cueing_effect	194	1	dot	right	197.027229739	-16.4902676874	1	right	197.027229739	-16.4902676874	1.47293342199	885.558377486	u	absent	0
SPC1_106	2015_Apr_09_1631	LL-George	PME	cueing_effect	195	1	dot	right	215.468872399	17.3056226982	1	right	215.468872399	17.3056226982	1.47293342199	1227.1354571	u	absent	0
SPC1_106	2015_Apr_09_1631	LL-George	PME	cueing_effect	196	0					0					1285.33577826	u	absent	1
SPC1_106	2015_Apr_09_1631	LL-George	PME	cueing_effect	197	0					1	right	216.452882821	2.01702063187	1.47293342199	756.358101964	u	absent	0
SPC1_106	2015_Apr_09_1631	LL-George	PME	cueing_effect	198	1	dot	left	-192.851034521	-18.4531406962	1	left	-192.851034521	-18.4531406962	1.47293342199	858.41925256	y	present	1
SPC1_106	2015_Apr_09_1631	LL-George	PME	cueing_effect	199	1	dot	right	214.125894221	-8.04375519291	1	right	214.125894221	-8.04375519291	1.47293342199	877.663992811	u	absent	0
