subj_id	date	computer	experimenter	part	trial_ix	cue_present	cue_type	cue_loc	cue_pos_x	cue_pos_y	target_present	target_loc	target_pos_x	target_pos_y	target_opacity	rt	key	response	is_correct
SPC1_105	2015_Apr_09_1631	LL-Kramer	PME	practice	0	0					1	right	222.017288105	22.1186462506	1.0	2077.80397637		timeout	0
SPC1_105	2015_Apr_09_1631	LL-Kramer	PME	practice	1	0					1	left	-210.665571284	0.443902285886	1.0	594.515945762	y	present	1
SPC1_105	2015_Apr_09_1631	LL-Kramer	PME	practice	2	0					0					1177.96076462	u	absent	1
SPC1_105	2015_Apr_09_1631	LL-Kramer	PME	practice	3	0					1	left	-186.690878718	-7.12491243807	1.0	535.565989092	y	present	1
SPC1_105	2015_Apr_09_1631	LL-Kramer	PME	practice	4	0					1	left	-194.074479635	12.2733989799	1.0	1614.61304454	u	absent	0
SPC1_105	2015_Apr_09_1631	LL-Kramer	PME	practice	5	0					1	left	-211.817927848	6.60018782476	1.0	450.231011026	y	present	1
SPC1_105	2015_Apr_09_1631	LL-Kramer	PME	practice	6	0					1	left	-208.658592118	-2.61926771618	1.0	436.074801721	y	present	1
SPC1_105	2015_Apr_09_1631	LL-Kramer	PME	practice	7	0					1	left	-205.954210294	12.9565276413	1.0	377.890266944	y	present	1
SPC1_105	2015_Apr_09_1631	LL-Kramer	PME	practice	8	0					1	left	-185.707430507	11.5975072824	1.0	386.322383769	y	present	1
SPC1_105	2015_Apr_09_1631	LL-Kramer	PME	practice	9	0					1	right	196.60383092	-21.6987552174	1.0	502.602940891	u	absent	0
SPC1_105	2015_Apr_09_1631	LL-Kramer	PME	practice	10	0					1	left	-185.244660438	-2.46335871156	1.0	1096.4887687	u	absent	0
SPC1_105	2015_Apr_09_1631	LL-Kramer	PME	practice	11	0					1	right	180.920586068	-18.2409703494	1.0	870.387534145	u	absent	0
SPC1_105	2015_Apr_09_1631	LL-Kramer	PME	practice	12	0					0					769.257884007	u	absent	1
SPC1_105	2015_Apr_09_1631	LL-Kramer	PME	practice	13	0					0					585.4256358	u	absent	1
SPC1_105	2015_Apr_09_1631	LL-Kramer	PME	practice	14	0					0					1045.15013844	u	absent	1
SPC1_105	2015_Apr_09_1631	LL-Kramer	PME	practice	15	0					1	left	-203.170408024	2.91074364351	1.0	626.975211315	y	present	1
SPC1_105	2015_Apr_09_1631	LL-Kramer	PME	practice	16	0					1	right	207.388941486	-8.11354075491	1.0	802.039227448	u	absent	0
SPC1_105	2015_Apr_09_1631	LL-Kramer	PME	practice	17	0					1	right	210.265040708	-6.11527240326	1.0	668.938106857	u	absent	0
SPC1_105	2015_Apr_09_1631	LL-Kramer	PME	practice	18	0					1	right	195.392728247	21.7302871818	1.0	464.287009556	y	present	1
SPC1_105	2015_Apr_09_1631	LL-Kramer	PME	practice	19	0					1	right	219.409309556	-22.309363963	1.0	527.111256029	y	present	1
SPC1_105	2015_Apr_09_1631	LL-Kramer	PME	calibration	0	0					1	right	183.276331556	-4.90511378888	0.8	1186.19324127	u	absent	0
SPC1_105	2015_Apr_09_1631	LL-Kramer	PME	calibration	1	0					1	right	217.950110049	-4.32832476211	1.0	729.795574211	y	present	1
SPC1_105	2015_Apr_09_1631	LL-Kramer	PME	calibration	2	0					1	right	190.33457084	-6.50570222803	1.0	452.988166828	y	present	1
SPC1_105	2015_Apr_09_1631	LL-Kramer	PME	calibration	3	0					1	left	-192.587050575	21.1623560508	0.922040690101	481.547407806	y	present	1
SPC1_105	2015_Apr_09_1631	LL-Kramer	PME	calibration	4	0					1	right	176.646262867	4.35877764074	0.860906834362	523.400734179	y	present	1
SPC1_105	2015_Apr_09_1631	LL-Kramer	PME	calibration	5	0					1	left	-186.001770053	-21.7205146844	0.81343164617	631.873833016	y	present	1
SPC1_105	2015_Apr_09_1631	LL-Kramer	PME	calibration	6	0					1	right	191.558680803	-15.556154753	0.775512414655	464.990043547	y	present	1
SPC1_105	2015_Apr_09_1631	LL-Kramer	PME	calibration	7	0					1	left	-190.372081316	3.98814967716	0.743108256095	386.335251853	y	present	1
SPC1_105	2015_Apr_09_1631	LL-Kramer	PME	calibration	8	0					1	right	196.248115969	3.27361190679	0.715419706361	536.439809948	u	absent	0
SPC1_105	2015_Apr_09_1631	LL-Kramer	PME	calibration	9	0					1	left	-177.899870277	0.647355316016	0.766454262603	550.040766597	y	present	1
SPC1_105	2015_Apr_09_1631	LL-Kramer	PME	calibration	10	0					1	right	188.605934187	17.5710372105	0.740538482327	886.048072018	u	absent	0
SPC1_105	2015_Apr_09_1631	LL-Kramer	PME	calibration	11	0					1	right	188.624963441	-12.7413625182	0.783360144356	594.43211183	y	present	1
SPC1_105	2015_Apr_09_1631	LL-Kramer	PME	calibration	12	0					1	right	197.534757355	-13.6149233177	0.758577488247	558.491210453	y	present	1
SPC1_105	2015_Apr_09_1631	LL-Kramer	PME	calibration	13	0					1	left	-191.762872278	10.4731562123	0.737488156507	860.438610893	u	absent	0
SPC1_105	2015_Apr_09_1631	LL-Kramer	PME	calibration	14	0					1	right	206.747429972	-23.434906259	0.773168068347	929.500869475	u	absent	0
SPC1_105	2015_Apr_09_1631	LL-Kramer	PME	calibration	15	0					1	left	-219.02255828	5.88051513708	0.814248330525	443.875631317	y	present	1
SPC1_105	2015_Apr_09_1631	LL-Kramer	PME	calibration	16	0					1	right	213.044113267	9.28060859388	0.789010675599	461.43393172	y	present	1
SPC1_105	2015_Apr_09_1631	LL-Kramer	PME	calibration	17	0					1	right	221.616730973	3.15322699152	0.76809660033	816.74250029	y	present	1
SPC1_105	2015_Apr_09_1631	LL-Kramer	PME	calibration	18	0					0					1118.50351654	u	absent	1
SPC1_105	2015_Apr_09_1631	LL-Kramer	PME	calibration	19	0					1	left	-218.964151981	-1.35012939295	0.750457418161	1328.78473401	u	absent	0
SPC1_105	2015_Apr_09_1631	LL-Kramer	PME	calibration	20	0					1	left	-191.254293257	-5.72340514175	0.779216339207	939.871301409	u	absent	0
SPC1_105	2015_Apr_09_1631	LL-Kramer	PME	calibration	21	0					0					732.914190274	u	absent	1
SPC1_105	2015_Apr_09_1631	LL-Kramer	PME	calibration	22	0					0					1661.01718042	u	absent	1
SPC1_105	2015_Apr_09_1631	LL-Kramer	PME	calibration	23	0					1	right	178.675506241	-15.8476468	0.814476955448	994.512592442	u	absent	0
SPC1_105	2015_Apr_09_1631	LL-Kramer	PME	calibration	24	0					0					514.781062957	u	absent	1
SPC1_105	2015_Apr_09_1631	LL-Kramer	PME	calibration	25	0					1	left	-209.246808184	-0.350335004097	0.857704491749	992.003818043	u	absent	0
SPC1_105	2015_Apr_09_1631	LL-Kramer	PME	calibration	26	0					1	left	-201.436222196	10.6660469668	0.918858795478	1285.9363202	u	absent	0
SPC1_105	2015_Apr_09_1631	LL-Kramer	PME	calibration	27	0					0					1912.07553307	u	absent	1
SPC1_105	2015_Apr_09_1631	LL-Kramer	PME	calibration	28	0					1	left	-185.379624288	5.07646451409	1.0	1133.35808041	u	absent	0
SPC1_105	2015_Apr_09_1631	LL-Kramer	PME	calibration	29	0					1	right	212.262815439	6.81405172888	1.0	518.959104549	y	present	1
SPC1_105	2015_Apr_09_1631	LL-Kramer	PME	calibration	30	0					1	right	211.145226412	3.87003119593	1.0	477.251219563	y	present	1
SPC1_105	2015_Apr_09_1631	LL-Kramer	PME	calibration	31	0					1	right	181.604818144	-3.11755370295	1.0	820.697114803	u	absent	0
SPC1_105	2015_Apr_09_1631	LL-Kramer	PME	calibration	32	0					1	right	182.268139225	-16.8035710419	1.0	554.138873238	y	present	1
SPC1_105	2015_Apr_09_1631	LL-Kramer	PME	calibration	33	0					1	right	214.285282033	16.1430470589	1.0	919.002931565	u	absent	0
SPC1_105	2015_Apr_09_1631	LL-Kramer	PME	calibration	34	0					1	right	187.657912803	-22.6607198245	1.0	727.092617657	u	absent	0
SPC1_105	2015_Apr_09_1631	LL-Kramer	PME	calibration	35	0					1	right	206.930395773	-14.0608329744	1.0	479.505373165	y	present	1
SPC1_105	2015_Apr_09_1631	LL-Kramer	PME	calibration	36	0					1	left	-222.690026364	10.9947294811	1.0	458.714598324	y	present	1
SPC1_105	2015_Apr_09_1631	LL-Kramer	PME	calibration	37	0					1	left	-190.523852994	-17.9953531675	1.0	861.113179941	u	absent	0
SPC1_105	2015_Apr_09_1631	LL-Kramer	PME	calibration	38	0					0					735.438171774	u	absent	1
SPC1_105	2015_Apr_09_1631	LL-Kramer	PME	calibration	39	0					1	left	-180.865939268	-15.8739972714	1.0	827.566415071	u	absent	0
SPC1_105	2015_Apr_09_1631	LL-Kramer	PME	calibration	40	0					1	right	213.011633382	-20.634622361	1.0	536.072110757	u	absent	0
SPC1_105	2015_Apr_09_1631	LL-Kramer	PME	calibration	41	0					1	left	-181.700270992	18.1419765436	1.0	635.73876489	u	absent	0
SPC1_105	2015_Apr_09_1631	LL-Kramer	PME	calibration	42	0					1	left	-188.735530757	2.324332408	1.0	469.544361345	u	absent	0
SPC1_105	2015_Apr_09_1631	LL-Kramer	PME	calibration	43	0					1	left	-213.188883043	14.5185806488	1.0	517.10111415	y	present	1
SPC1_105	2015_Apr_09_1631	LL-Kramer	PME	calibration	44	0					1	right	182.684934631	-8.52147252818	1.0	698.403922375	u	absent	0
SPC1_105	2015_Apr_09_1631	LL-Kramer	PME	calibration	45	0					1	left	-215.513582453	-20.367235265	1.0	579.742096364	y	present	1
SPC1_105	2015_Apr_09_1631	LL-Kramer	PME	calibration	46	0					1	right	204.756156491	-14.8311863295	1.0	602.013024036	u	absent	0
SPC1_105	2015_Apr_09_1631	LL-Kramer	PME	calibration	47	0					0					679.066786077	u	absent	1
SPC1_105	2015_Apr_09_1631	LL-Kramer	PME	calibration	48	0					0					1037.03970881	u	absent	1
SPC1_105	2015_Apr_09_1631	LL-Kramer	PME	calibration	49	0					1	right	202.037579516	-15.4746373651	1.0	629.051559139	u	absent	0
SPC1_105	2015_Apr_09_1631	LL-Kramer	PME	calibration	50	0					1	right	176.193735008	4.60013200154	1.0	458.402269054	y	present	1
SPC1_105	2015_Apr_09_1631	LL-Kramer	PME	calibration	51	0					1	left	-202.937119224	9.51340163121	1.0	421.671380289	y	present	1
SPC1_105	2015_Apr_09_1631	LL-Kramer	PME	calibration	52	0					0					860.136028845	u	absent	1
SPC1_105	2015_Apr_09_1631	LL-Kramer	PME	calibration	53	0					1	right	182.088081488	2.18829911894	1.0	560.230663512	y	present	1
SPC1_105	2015_Apr_09_1631	LL-Kramer	PME	calibration	54	0					1	right	176.054155095	-14.8940413521	1.0	769.269581884	u	absent	0
SPC1_105	2015_Apr_09_1631	LL-Kramer	PME	calibration	55	0					0					1279.69245892	u	absent	1
SPC1_105	2015_Apr_09_1631	LL-Kramer	PME	calibration	56	0					1	left	-221.768323593	17.3690211519	1.0	952.466642484	u	absent	0
SPC1_105	2015_Apr_09_1631	LL-Kramer	PME	calibration	57	0					0					1243.97810362	u	absent	1
SPC1_105	2015_Apr_09_1631	LL-Kramer	PME	calibration	58	0					1	left	-203.602475666	19.5864840397	1.0	1076.96212921	y	present	1
SPC1_105	2015_Apr_09_1631	LL-Kramer	PME	calibration	59	0					1	left	-186.033181664	-20.9201702855	1.0	690.803513397	y	present	1
SPC1_105	2015_Apr_09_1631	LL-Kramer	PME	calibration	60	0					1	right	195.959500306	-10.8734006652	1.0	844.252454583	u	absent	0
SPC1_105	2015_Apr_09_1631	LL-Kramer	PME	calibration	61	0					1	right	190.682229	-10.1933329884	1.0	594.682833645	y	present	1
SPC1_105	2015_Apr_09_1631	LL-Kramer	PME	calibration	62	0					1	left	-190.309307271	-22.3067370846	1.0	1256.49351021	u	absent	0
SPC1_105	2015_Apr_09_1631	LL-Kramer	PME	calibration	63	0					1	left	-218.699896897	17.3701658565	1.0	1385.44115471	u	absent	0
SPC1_105	2015_Apr_09_1631	LL-Kramer	PME	calibration	64	0					1	right	211.548792637	-22.6279364636	1.0	1685.21823501	u	absent	0
SPC1_105	2015_Apr_09_1631	LL-Kramer	PME	calibration	65	0					0					1537.52536001	u	absent	1
SPC1_105	2015_Apr_09_1631	LL-Kramer	PME	calibration	66	0					0					1193.9227148	u	absent	1
SPC1_105	2015_Apr_09_1631	LL-Kramer	PME	calibration	67	0					1	right	197.945265467	6.96910821697	1.0	1437.03830522	u	absent	0
SPC1_105	2015_Apr_09_1631	LL-Kramer	PME	calibration	68	0					0					1402.75965165	u	absent	1
SPC1_105	2015_Apr_09_1631	LL-Kramer	PME	calibration	69	0					1	left	-206.893267505	17.3439555931	1.0	1852.42098244	u	absent	0
SPC1_105	2015_Apr_09_1631	LL-Kramer	PME	calibration	70	0					1	right	210.995903405	-17.9614747169	1.0	885.296297725	y	present	1
SPC1_105	2015_Apr_09_1631	LL-Kramer	PME	calibration	71	0					0					1681.01250893	u	absent	1
SPC1_105	2015_Apr_09_1631	LL-Kramer	PME	calibration	72	0					1	right	190.420628244	10.8877606089	1.0	427.554561291	y	present	1
SPC1_105	2015_Apr_09_1631	LL-Kramer	PME	calibration	73	0					1	left	-209.865676995	21.7563000132	1.0	1081.25090878	u	absent	0
SPC1_105	2015_Apr_09_1631	LL-Kramer	PME	calibration	74	0					1	left	-222.643815922	-7.21491976951	1.0	985.704977997	u	absent	0
SPC1_105	2015_Apr_09_1631	LL-Kramer	PME	calibration	75	0					1	right	177.193175836	15.9461718017	1.0	786.32643912	u	absent	0
SPC1_105	2015_Apr_09_1631	LL-Kramer	PME	calibration	76	0					0					754.234482534	u	absent	1
SPC1_105	2015_Apr_09_1631	LL-Kramer	PME	calibration	77	0					0					864.870492369	u	absent	1
SPC1_105	2015_Apr_09_1631	LL-Kramer	PME	calibration	78	0					1	right	177.741163406	-0.953140534245	1.0	486.229620874	y	present	1
SPC1_105	2015_Apr_09_1631	LL-Kramer	PME	calibration	79	0					0					544.070632197	u	absent	1
SPC1_105	2015_Apr_09_1631	LL-Kramer	PME	calibration	80	0					1	right	221.13847956	-23.7115584522	1.0	855.57274241	u	absent	0
SPC1_105	2015_Apr_09_1631	LL-Kramer	PME	calibration	81	0					1	right	206.682233765	0.00198347568861	1.0	1044.48453756	u	absent	0
SPC1_105	2015_Apr_09_1631	LL-Kramer	PME	calibration	82	0					1	right	198.671013909	-15.1996243805	1.0	494.426614139	y	present	1
SPC1_105	2015_Apr_09_1631	LL-Kramer	PME	calibration	83	0					0					550.203755032	u	absent	1
SPC1_105	2015_Apr_09_1631	LL-Kramer	PME	calibration	84	0					1	right	189.83494369	-18.988562218	1.0	402.255869471	y	present	1
SPC1_105	2015_Apr_09_1631	LL-Kramer	PME	calibration	85	0					0					519.082320388	u	absent	1
SPC1_105	2015_Apr_09_1631	LL-Kramer	PME	calibration	86	0					1	right	193.477994623	18.6043675402	1.0	427.956573199	y	present	1
SPC1_105	2015_Apr_09_1631	LL-Kramer	PME	calibration	87	0					1	left	-217.296317492	-1.05421547736	1.0	827.345717698	u	absent	0
SPC1_105	2015_Apr_09_1631	LL-Kramer	PME	calibration	88	0					0					537.281657103	u	absent	1
SPC1_105	2015_Apr_09_1631	LL-Kramer	PME	calibration	89	0					1	left	-221.248547999	-13.2930814042	1.0	791.289788205	y	present	1
SPC1_105	2015_Apr_09_1631	LL-Kramer	PME	calibration	90	0					1	right	187.378083605	-19.8238308643	1.0	761.206332594	u	absent	0
SPC1_105	2015_Apr_09_1631	LL-Kramer	PME	calibration	91	0					1	left	-197.021603151	-5.67241158814	1.0	860.616415739	u	absent	0
SPC1_105	2015_Apr_09_1631	LL-Kramer	PME	calibration	92	0					1	right	211.170539314	21.9281073776	1.0	743.724457454	u	absent	0
SPC1_105	2015_Apr_09_1631	LL-Kramer	PME	calibration	93	0					1	left	-191.605469941	-21.5984322696	1.0	519.484722521	y	present	1
SPC1_105	2015_Apr_09_1631	LL-Kramer	PME	calibration	94	0					1	right	199.854577715	-5.55998488063	1.0	895.493993536	u	absent	0
SPC1_105	2015_Apr_09_1631	LL-Kramer	PME	calibration	95	0					1	right	176.232447086	-2.73797615614	1.0	683.745490387	y	present	1
SPC1_105	2015_Apr_09_1631	LL-Kramer	PME	calibration	96	0					1	left	-217.906945871	-18.5955807502	1.0	519.376323558	y	present	1
SPC1_105	2015_Apr_09_1631	LL-Kramer	PME	calibration	97	0					1	left	-197.554225235	-1.87928213237	1.0	818.804420996	u	absent	0
SPC1_105	2015_Apr_09_1631	LL-Kramer	PME	calibration	98	0					1	right	188.624926089	-18.2037105766	1.0	1044.45919255	u	absent	0
SPC1_105	2015_Apr_09_1631	LL-Kramer	PME	calibration	99	0					1	right	219.05012182	9.21597449939	1.0	843.947143294	u	absent	0
SPC1_105	2015_Apr_09_1631	LL-Kramer	PME	calibration	100	0					1	left	-203.484671397	-3.22489659722	1.0	512.826761696	y	present	1
SPC1_105	2015_Apr_09_1631	LL-Kramer	PME	calibration	101	0					1	right	202.089768461	-20.2523457257	1.0	787.428755779	y	present	1
SPC1_105	2015_Apr_09_1631	LL-Kramer	PME	calibration	102	0					1	right	189.017676105	-6.97514121852	1.0	1519.06750351	u	absent	0
SPC1_105	2015_Apr_09_1631	LL-Kramer	PME	calibration	103	0					1	left	-216.145448232	-5.1258057739	1.0	577.14363886	y	present	1
SPC1_105	2015_Apr_09_1631	LL-Kramer	PME	calibration	104	0					1	right	199.354593317	13.1542297064	1.0	453.075899743	y	present	1
SPC1_105	2015_Apr_09_1631	LL-Kramer	PME	calibration	105	0					0					689.721083269	u	absent	1
SPC1_105	2015_Apr_09_1631	LL-Kramer	PME	calibration	106	0					0					744.423591997	u	absent	1
SPC1_105	2015_Apr_09_1631	LL-Kramer	PME	calibration	107	0					1	right	197.534318674	4.83472415488	1.0	577.744902577	u	absent	0
SPC1_105	2015_Apr_09_1631	LL-Kramer	PME	calibration	108	0					1	right	184.40418287	-12.3283572669	1.0	470.233748201	y	present	1
SPC1_105	2015_Apr_09_1631	LL-Kramer	PME	calibration	109	0					1	right	179.835472735	-9.76596285725	1.0	993.439520244	u	absent	0
SPC1_105	2015_Apr_09_1631	LL-Kramer	PME	calibration	110	0					0					2070.81146026		timeout	0
SPC1_105	2015_Apr_09_1631	LL-Kramer	PME	calibration	111	0					1	left	-188.459323074	-14.1187578749	1.0	737.558191642	u	absent	0
SPC1_105	2015_Apr_09_1631	LL-Kramer	PME	calibration	112	0					1	left	-199.997544195	18.1679754095	1.0	456.666714977	u	absent	0
SPC1_105	2015_Apr_09_1631	LL-Kramer	PME	calibration	113	0					1	right	178.312553697	7.00978058361	1.0	619.190368801	u	absent	0
SPC1_105	2015_Apr_09_1631	LL-Kramer	PME	calibration	114	0					1	left	-191.333872522	12.4510623997	1.0	1079.33910936	u	absent	0
SPC1_105	2015_Apr_09_1631	LL-Kramer	PME	calibration	115	0					1	left	-208.43891005	-17.1576075931	1.0	1060.99472102	u	absent	0
SPC1_105	2015_Apr_09_1631	LL-Kramer	PME	calibration	116	0					0					1610.90018367	u	absent	1
SPC1_105	2015_Apr_09_1631	LL-Kramer	PME	calibration	117	0					1	left	-218.591574098	7.16301961142	1.0	735.562167596	u	absent	0
SPC1_105	2015_Apr_09_1631	LL-Kramer	PME	calibration	118	0					1	left	-201.228128402	4.58793334631	1.0	761.317851022	y	present	1
SPC1_105	2015_Apr_09_1631	LL-Kramer	PME	calibration	119	0					1	right	186.773889084	19.2877907042	1.0	735.614417586	u	absent	0
SPC1_105	2015_Apr_09_1631	LL-Kramer	PME	cueing_effect	0	0					1	right	187.602086855	-3.0221124511	1.40553264948	1102.66049393	u	absent	0
SPC1_105	2015_Apr_09_1631	LL-Kramer	PME	cueing_effect	1	1	dot	left	-214.791360699	-9.95634545405	1	left	-214.791360699	-9.95634545405	1.40553264948	802.845200989	y	present	1
SPC1_105	2015_Apr_09_1631	LL-Kramer	PME	cueing_effect	2	1	dot	right	179.73841493	-6.42900470714	1	right	179.73841493	-6.42900470714	1.40553264948	1452.35414989	u	absent	0
SPC1_105	2015_Apr_09_1631	LL-Kramer	PME	cueing_effect	3	0					1	left	-223.707609136	-16.0642809138	1.40553264948	647.779243533	u	absent	0
SPC1_105	2015_Apr_09_1631	LL-Kramer	PME	cueing_effect	4	1	dot	left	-200	0	0					481.482679956	u	absent	1
SPC1_105	2015_Apr_09_1631	LL-Kramer	PME	cueing_effect	5	0					1	right	204.78459468	-17.7135765206	1.40553264948	762.995696627	u	absent	0
SPC1_105	2015_Apr_09_1631	LL-Kramer	PME	cueing_effect	6	0					1	right	195.211648551	-9.91191373141	1.40553264948	921.002854593	u	absent	0
SPC1_105	2015_Apr_09_1631	LL-Kramer	PME	cueing_effect	7	1	dot	right	205.92372694	11.4285618514	1	right	205.92372694	11.4285618514	1.40553264948	886.084725149	u	absent	0
SPC1_105	2015_Apr_09_1631	LL-Kramer	PME	cueing_effect	8	0					1	right	177.637455695	-8.41946731366	1.40553264948	1669.12917001	u	absent	0
SPC1_105	2015_Apr_09_1631	LL-Kramer	PME	cueing_effect	9	0					1	right	211.191618865	3.24036531759	1.40553264948	894.047763199	u	absent	0
SPC1_105	2015_Apr_09_1631	LL-Kramer	PME	cueing_effect	10	0					0					1653.99308037	u	absent	1
SPC1_105	2015_Apr_09_1631	LL-Kramer	PME	cueing_effect	11	1	dot	left	-200	0	0					1154.57699262	u	absent	1
SPC1_105	2015_Apr_09_1631	LL-Kramer	PME	cueing_effect	12	1	dot	left	-181.109224	-0.0848467258307	1	left	-181.109224	-0.0848467258307	1.40553264948	697.729742154	y	present	1
SPC1_105	2015_Apr_09_1631	LL-Kramer	PME	cueing_effect	13	1	dot	right	222.064709026	17.9554003786	1	right	222.064709026	17.9554003786	1.40553264948	1310.59163623	u	absent	0
SPC1_105	2015_Apr_09_1631	LL-Kramer	PME	cueing_effect	14	0					1	left	-216.510628906	11.2052574812	1.40553264948	774.793251883	y	present	1
SPC1_105	2015_Apr_09_1631	LL-Kramer	PME	cueing_effect	15	1	dot	right	200	0	0					1558.17225249	u	absent	1
SPC1_105	2015_Apr_09_1631	LL-Kramer	PME	cueing_effect	16	1	dot	left	-179.502882489	0.939014033315	1	left	-179.502882489	0.939014033315	1.40553264948	660.929837264	u	absent	0
SPC1_105	2015_Apr_09_1631	LL-Kramer	PME	cueing_effect	17	1	dot	left	-200	0	0					2068.28319002	u	absent	1
SPC1_105	2015_Apr_09_1631	LL-Kramer	PME	cueing_effect	18	1	dot	right	200	0	0					0.0	u	absent	1
SPC1_105	2015_Apr_09_1631	LL-Kramer	PME	cueing_effect	19	0					1	left	-219.927380985	10.4309925409	1.40553264948	785.913119093	y	present	1
SPC1_105	2015_Apr_09_1631	LL-Kramer	PME	cueing_effect	20	1	dot	left	-200	0	0					1037.52828389	u	absent	1
SPC1_105	2015_Apr_09_1631	LL-Kramer	PME	cueing_effect	21	0					1	left	-184.020907047	13.3810211166	1.40553264948	1086.05828788	u	absent	0
SPC1_105	2015_Apr_09_1631	LL-Kramer	PME	cueing_effect	22	0					1	right	187.569090316	12.4781307283	1.40553264948	862.804672681	u	absent	0
SPC1_105	2015_Apr_09_1631	LL-Kramer	PME	cueing_effect	23	0					0					794.487948995	u	absent	1
SPC1_105	2015_Apr_09_1631	LL-Kramer	PME	cueing_effect	24	0					1	left	-180.249193767	17.7959056787	1.40553264948	1041.15536204	u	absent	0
SPC1_105	2015_Apr_09_1631	LL-Kramer	PME	cueing_effect	25	1	dot	left	-200	0	0					711.370861623	u	absent	1
SPC1_105	2015_Apr_09_1631	LL-Kramer	PME	cueing_effect	26	0					1	left	-217.622512857	-6.06451069991	1.40553264948	1484.67694176	u	absent	0
SPC1_105	2015_Apr_09_1631	LL-Kramer	PME	cueing_effect	27	1	dot	right	199.605609773	-15.4289526852	1	right	199.605609773	-15.4289526852	1.40553264948	1280.68403667	u	absent	0
SPC1_105	2015_Apr_09_1631	LL-Kramer	PME	cueing_effect	28	0					1	right	196.196232496	17.6649141317	1.40553264948	547.564745881	u	absent	0
SPC1_105	2015_Apr_09_1631	LL-Kramer	PME	cueing_effect	29	0					1	left	-215.921752827	8.45918771506	1.40553264948	544.390370604	y	present	1
SPC1_105	2015_Apr_09_1631	LL-Kramer	PME	cueing_effect	30	0					1	left	-187.124817152	13.907060628	1.40553264948	531.122799497	y	present	1
SPC1_105	2015_Apr_09_1631	LL-Kramer	PME	cueing_effect	31	0					1	left	-212.087998908	-4.67337639262	1.40553264948	943.893373013	y	present	1
SPC1_105	2015_Apr_09_1631	LL-Kramer	PME	cueing_effect	32	0					1	left	-206.676903104	-18.9824615263	1.40553264948	864.760923665	u	absent	0
SPC1_105	2015_Apr_09_1631	LL-Kramer	PME	cueing_effect	33	0					0					706.035524607	u	absent	1
SPC1_105	2015_Apr_09_1631	LL-Kramer	PME	cueing_effect	34	1	dot	right	186.494105224	-16.3769084292	1	right	186.494105224	-16.3769084292	1.40553264948	502.391992137	u	absent	0
SPC1_105	2015_Apr_09_1631	LL-Kramer	PME	cueing_effect	35	1	dot	right	187.749405531	-5.94570770037	1	right	187.749405531	-5.94570770037	1.40553264948	593.893626239	u	absent	0
SPC1_105	2015_Apr_09_1631	LL-Kramer	PME	cueing_effect	36	1	dot	right	186.96777163	-4.31143105593	1	right	186.96777163	-4.31143105593	1.40553264948	454.635597765	u	absent	0
SPC1_105	2015_Apr_09_1631	LL-Kramer	PME	cueing_effect	37	1	dot	right	196.937271046	-13.1235037655	1	right	196.937271046	-13.1235037655	1.40553264948	1668.9209505	u	absent	0
SPC1_105	2015_Apr_09_1631	LL-Kramer	PME	cueing_effect	38	0					0					1160.53152923	u	absent	1
SPC1_105	2015_Apr_09_1631	LL-Kramer	PME	cueing_effect	39	0					1	right	200.518408651	8.01008648426	1.40553264948	477.129172999	y	present	1
SPC1_105	2015_Apr_09_1631	LL-Kramer	PME	cueing_effect	40	1	dot	right	200	0	0					756.193463691	u	absent	1
SPC1_105	2015_Apr_09_1631	LL-Kramer	PME	cueing_effect	41	1	dot	left	-217.124346128	10.9751938392	1	left	-217.124346128	10.9751938392	1.40553264948	1097.40821086	u	absent	0
SPC1_105	2015_Apr_09_1631	LL-Kramer	PME	cueing_effect	42	0					1	right	194.53989546	12.7448478667	1.40553264948	481.794230174	y	present	1
SPC1_105	2015_Apr_09_1631	LL-Kramer	PME	cueing_effect	43	1	dot	right	208.105086513	0.734967902166	1	right	208.105086513	0.734967902166	1.40553264948	811.186856125	u	absent	0
SPC1_105	2015_Apr_09_1631	LL-Kramer	PME	cueing_effect	44	1	dot	left	-200	0	0					579.283935018	u	absent	1
SPC1_105	2015_Apr_09_1631	LL-Kramer	PME	cueing_effect	45	1	dot	left	-207.643288992	-8.06413773464	1	left	-207.643288992	-8.06413773464	1.40553264948	941.990931053	u	absent	0
SPC1_105	2015_Apr_09_1631	LL-Kramer	PME	cueing_effect	46	1	dot	left	-217.433904564	-1.76518823181	1	left	-217.433904564	-1.76518823181	1.40553264948	989.89159707	u	absent	0
SPC1_105	2015_Apr_09_1631	LL-Kramer	PME	cueing_effect	47	0					0					710.670556873	u	absent	1
SPC1_105	2015_Apr_09_1631	LL-Kramer	PME	cueing_effect	48	0					1	left	-206.837544954	-18.7975340757	1.40553264948	794.531620573	u	absent	0
SPC1_105	2015_Apr_09_1631	LL-Kramer	PME	cueing_effect	49	0					1	right	217.072972965	-15.9375380595	1.40553264948	1340.06602969	u	absent	0
SPC1_105	2015_Apr_09_1631	LL-Kramer	PME	cueing_effect	50	0					1	left	-206.112321334	21.5342836828	1.40553264948	961.055119988	u	absent	0
SPC1_105	2015_Apr_09_1631	LL-Kramer	PME	cueing_effect	51	1	dot	right	200	0	0					541.715098545	u	absent	1
SPC1_105	2015_Apr_09_1631	LL-Kramer	PME	cueing_effect	52	0					1	left	-186.988014456	0.997113131274	1.40553264948	679.451251402	u	absent	0
SPC1_105	2015_Apr_09_1631	LL-Kramer	PME	cueing_effect	53	1	dot	left	-183.505052615	1.69691869867	1	left	-183.505052615	1.69691869867	1.40553264948	1024.74850835	u	absent	0
SPC1_105	2015_Apr_09_1631	LL-Kramer	PME	cueing_effect	54	0					0					581.187156495	u	absent	1
SPC1_105	2015_Apr_09_1631	LL-Kramer	PME	cueing_effect	55	0					1	right	182.886185096	-17.8091910324	1.40553264948	1327.27884548	u	absent	0
SPC1_105	2015_Apr_09_1631	LL-Kramer	PME	cueing_effect	56	0					1	right	207.359890019	-2.28120785979	1.40553264948	1477.37833485	y	present	1
SPC1_105	2015_Apr_09_1631	LL-Kramer	PME	cueing_effect	57	0					0					1275.55457968	u	absent	1
SPC1_105	2015_Apr_09_1631	LL-Kramer	PME	cueing_effect	58	1	dot	left	-215.638712098	12.4601284068	1	left	-215.638712098	12.4601284068	1.40553264948	870.885857847	y	present	1
SPC1_105	2015_Apr_09_1631	LL-Kramer	PME	cueing_effect	59	1	dot	left	-216.584450813	1.96984228382	1	left	-216.584450813	1.96984228382	1.40553264948	1256.11801306	u	absent	0
SPC1_105	2015_Apr_09_1631	LL-Kramer	PME	cueing_effect	60	0					1	left	-218.277677395	-10.5947890606	1.40553264948	987.309127115	u	absent	0
SPC1_105	2015_Apr_09_1631	LL-Kramer	PME	cueing_effect	61	0					1	left	-194.946961957	1.24983974589	1.40553264948	1643.63590581	u	absent	0
SPC1_105	2015_Apr_09_1631	LL-Kramer	PME	cueing_effect	62	1	dot	left	-210.819882313	15.3947742307	1	left	-210.819882313	15.3947742307	1.40553264948	602.62598563	u	absent	0
SPC1_105	2015_Apr_09_1631	LL-Kramer	PME	cueing_effect	63	0					0					785.52592406	u	absent	1
SPC1_105	2015_Apr_09_1631	LL-Kramer	PME	cueing_effect	64	1	dot	right	209.946225573	-1.5653133427	1	right	209.946225573	-1.5653133427	1.40553264948	587.950787041	u	absent	0
SPC1_105	2015_Apr_09_1631	LL-Kramer	PME	cueing_effect	65	0					1	right	178.566769409	-0.628252734099	1.40553264948	887.53719395	u	absent	0
SPC1_105	2015_Apr_09_1631	LL-Kramer	PME	cueing_effect	66	1	dot	right	181.198084224	21.7882709674	1	right	181.198084224	21.7882709674	1.40553264948	686.347456183	u	absent	0
SPC1_105	2015_Apr_09_1631	LL-Kramer	PME	cueing_effect	67	0					1	left	-215.442970893	-20.6621681609	1.40553264948	1127.37936806	u	absent	0
SPC1_105	2015_Apr_09_1631	LL-Kramer	PME	cueing_effect	68	1	dot	right	187.217197182	-18.8221355922	1	right	187.217197182	-18.8221355922	1.40553264948	509.896088857	u	absent	0
SPC1_105	2015_Apr_09_1631	LL-Kramer	PME	cueing_effect	69	1	dot	left	-200	0	0					387.12094957	u	absent	1
SPC1_105	2015_Apr_09_1631	LL-Kramer	PME	cueing_effect	70	0					1	left	-203.377132996	-12.1751234547	1.40553264948	535.727028269	u	absent	0
SPC1_105	2015_Apr_09_1631	LL-Kramer	PME	cueing_effect	71	0					1	right	177.254059829	-7.26016866418	1.40553264948	466.066624969	u	absent	0
SPC1_105	2015_Apr_09_1631	LL-Kramer	PME	cueing_effect	72	1	dot	left	-222.49778909	14.2823370909	1	left	-222.49778909	14.2823370909	1.40553264948	594.278872013	u	absent	0
SPC1_105	2015_Apr_09_1631	LL-Kramer	PME	cueing_effect	73	1	dot	right	182.137821743	20.8637930187	1	right	182.137821743	20.8637930187	1.40553264948	494.005105458	u	absent	0
SPC1_105	2015_Apr_09_1631	LL-Kramer	PME	cueing_effect	74	1	dot	right	200	0	0					639.117460698	u	absent	1
SPC1_105	2015_Apr_09_1631	LL-Kramer	PME	cueing_effect	75	1	dot	left	-200	0	0					650.270081125	u	absent	1
SPC1_105	2015_Apr_09_1631	LL-Kramer	PME	cueing_effect	76	0					1	right	209.643814889	20.0398807142	1.40553264948	754.294920713	u	absent	0
SPC1_105	2015_Apr_09_1631	LL-Kramer	PME	cueing_effect	77	0					1	right	195.440216147	-11.1839169365	1.40553264948	685.901772697	u	absent	0
SPC1_105	2015_Apr_09_1631	LL-Kramer	PME	cueing_effect	78	0					1	right	191.629881926	1.57582665643	1.40553264948	717.147983145	u	absent	0
SPC1_105	2015_Apr_09_1631	LL-Kramer	PME	cueing_effect	79	0					1	left	-210.380076233	-2.38674281282	1.40553264948	1100.33654375	u	absent	0
SPC1_105	2015_Apr_09_1631	LL-Kramer	PME	cueing_effect	80	1	dot	left	-186.563128317	-4.77919579764	1	left	-186.563128317	-4.77919579764	1.40553264948	252.72683939	u	absent	0
SPC1_105	2015_Apr_09_1631	LL-Kramer	PME	cueing_effect	81	1	dot	right	205.032549339	-12.3945188999	1	right	205.032549339	-12.3945188999	1.40553264948	1394.20587756	u	absent	0
SPC1_105	2015_Apr_09_1631	LL-Kramer	PME	cueing_effect	82	1	dot	left	-198.420223677	14.6394739982	1	left	-198.420223677	14.6394739982	1.40553264948	752.982434817	y	present	1
SPC1_105	2015_Apr_09_1631	LL-Kramer	PME	cueing_effect	83	1	dot	left	-212.600462016	-7.01019117782	1	left	-212.600462016	-7.01019117782	1.40553264948	606.732280925	y	present	1
SPC1_105	2015_Apr_09_1631	LL-Kramer	PME	cueing_effect	84	1	dot	left	-200	0	0					1685.73020585	u	absent	1
SPC1_105	2015_Apr_09_1631	LL-Kramer	PME	cueing_effect	85	1	dot	left	-200	0	0					960.98064445	u	absent	1
SPC1_105	2015_Apr_09_1631	LL-Kramer	PME	cueing_effect	86	0					1	right	193.086654289	-4.02844284304	1.40553264948	2068.7382319		timeout	0
SPC1_105	2015_Apr_09_1631	LL-Kramer	PME	cueing_effect	87	1	dot	right	200	0	0					510.730137583	u	absent	1
SPC1_105	2015_Apr_09_1631	LL-Kramer	PME	cueing_effect	88	1	dot	left	-200	0	0					298.461474944	u	absent	1
SPC1_105	2015_Apr_09_1631	LL-Kramer	PME	cueing_effect	89	1	dot	left	-190.947704162	-15.9231748564	1	left	-190.947704162	-15.9231748564	1.40553264948	352.694124915	u	absent	0
SPC1_105	2015_Apr_09_1631	LL-Kramer	PME	cueing_effect	90	1	dot	right	176.492124133	-2.69674910639	1	right	176.492124133	-2.69674910639	1.40553264948	391.422986519	u	absent	0
SPC1_105	2015_Apr_09_1631	LL-Kramer	PME	cueing_effect	91	0					0					519.467566162	u	absent	1
SPC1_105	2015_Apr_09_1631	LL-Kramer	PME	cueing_effect	92	0					1	left	-196.299686333	3.20218299202	1.40553264948	477.056256961	y	present	1
SPC1_105	2015_Apr_09_1631	LL-Kramer	PME	cueing_effect	93	0					1	left	-221.870017637	-5.12179703561	1.40553264948	448.003761936	y	present	1
SPC1_105	2015_Apr_09_1631	LL-Kramer	PME	cueing_effect	94	1	dot	right	180.775441738	12.069848833	1	right	180.775441738	12.069848833	1.40553264948	698.41484027	u	absent	0
SPC1_105	2015_Apr_09_1631	LL-Kramer	PME	cueing_effect	95	0					1	left	-196.781898338	15.6816121069	1.40553264948	569.561947137	u	absent	0
SPC1_105	2015_Apr_09_1631	LL-Kramer	PME	cueing_effect	96	0					1	left	-202.24153492	-16.6737529593	1.40553264948	527.450490277	u	absent	0
SPC1_105	2015_Apr_09_1631	LL-Kramer	PME	cueing_effect	97	1	dot	right	200	0	0					613.028781489	u	absent	1
SPC1_105	2015_Apr_09_1631	LL-Kramer	PME	cueing_effect	98	0					1	right	206.461344879	16.3276969079	1.40553264948	152.824281715	u	absent	0
SPC1_105	2015_Apr_09_1631	LL-Kramer	PME	cueing_effect	99	0					1	left	-183.076509366	7.21070673407	1.40553264948	103.067185264	u	absent	0
SPC1_105	2015_Apr_09_1631	LL-Kramer	PME	cueing_effect	100	1	dot	left	-198.875767367	-5.55699242767	1	left	-198.875767367	-5.55699242767	1.40553264948	694.352996536	u	absent	0
SPC1_105	2015_Apr_09_1631	LL-Kramer	PME	cueing_effect	101	1	dot	left	-183.353016819	-19.621897399	1	left	-183.353016819	-19.621897399	1.40553264948	594.22584204	u	absent	0
SPC1_105	2015_Apr_09_1631	LL-Kramer	PME	cueing_effect	102	1	dot	right	200	0	0					502.834556159	u	absent	1
SPC1_105	2015_Apr_09_1631	LL-Kramer	PME	cueing_effect	103	1	dot	left	-179.950300974	19.1023189145	1	left	-179.950300974	19.1023189145	1.40553264948	110.87932298	u	absent	0
SPC1_105	2015_Apr_09_1631	LL-Kramer	PME	cueing_effect	104	0					0					473.181577399	u	absent	1
SPC1_105	2015_Apr_09_1631	LL-Kramer	PME	cueing_effect	105	0					1	right	180.311108349	-19.1354365123	1.40553264948	592.113621067	u	absent	0
SPC1_105	2015_Apr_09_1631	LL-Kramer	PME	cueing_effect	106	1	dot	left	-200	0	0					468.934909441	u	absent	1
SPC1_105	2015_Apr_09_1631	LL-Kramer	PME	cueing_effect	107	0					1	left	-181.028192637	22.6215733693	1.40553264948	560.602261685	u	absent	0
SPC1_105	2015_Apr_09_1631	LL-Kramer	PME	cueing_effect	108	1	dot	right	205.782208979	-8.77396828638	1	right	205.782208979	-8.77396828638	1.40553264948	488.128163386	u	absent	0
SPC1_105	2015_Apr_09_1631	LL-Kramer	PME	cueing_effect	109	1	dot	left	-213.798608248	1.69386001893	1	left	-213.798608248	1.69386001893	1.40553264948	285.378728062	u	absent	0
SPC1_105	2015_Apr_09_1631	LL-Kramer	PME	cueing_effect	110	1	dot	right	200	0	0					560.748093762	u	absent	1
SPC1_105	2015_Apr_09_1631	LL-Kramer	PME	cueing_effect	111	0					1	left	-178.391123536	-1.85473025499	1.40553264948	669.079259504	u	absent	0
SPC1_105	2015_Apr_09_1631	LL-Kramer	PME	cueing_effect	112	1	dot	left	-210.377164549	-22.9998776998	1	left	-210.377164549	-22.9998776998	1.40553264948	692.069208249	y	present	1
SPC1_105	2015_Apr_09_1631	LL-Kramer	PME	cueing_effect	113	0					1	right	213.53740913	9.83033478865	1.40553264948	529.91676284	u	absent	0
SPC1_105	2015_Apr_09_1631	LL-Kramer	PME	cueing_effect	114	0					1	left	-192.559938392	-13.243712298	1.40553264948	673.096651677	u	absent	0
SPC1_105	2015_Apr_09_1631	LL-Kramer	PME	cueing_effect	115	1	dot	right	206.558572914	-4.32989171474	1	right	206.558572914	-4.32989171474	1.40553264948	1226.94893042	u	absent	0
SPC1_105	2015_Apr_09_1631	LL-Kramer	PME	cueing_effect	116	0					1	right	217.396863993	-14.0357825639	1.40553264948	712.273536716	u	absent	0
SPC1_105	2015_Apr_09_1631	LL-Kramer	PME	cueing_effect	117	1	dot	left	-188.328571924	18.8279944886	1	left	-188.328571924	18.8279944886	1.40553264948	533.52278471	u	absent	0
SPC1_105	2015_Apr_09_1631	LL-Kramer	PME	cueing_effect	118	0					0					591.655849479	u	absent	1
SPC1_105	2015_Apr_09_1631	LL-Kramer	PME	cueing_effect	119	0					1	left	-188.882166576	3.64544430455	1.40553264948	702.526983805	u	absent	0
SPC1_105	2015_Apr_09_1631	LL-Kramer	PME	cueing_effect	120	0					1	right	181.545472874	-16.0199135682	1.40553264948	619.620065205	u	absent	0
SPC1_105	2015_Apr_09_1631	LL-Kramer	PME	cueing_effect	121	0					1	left	-205.732126164	-9.95235178465	1.40553264948	1102.01750835	u	absent	0
SPC1_105	2015_Apr_09_1631	LL-Kramer	PME	cueing_effect	122	0					1	right	213.114833935	14.735904742	1.40553264948	443.321938626	u	absent	0
SPC1_105	2015_Apr_09_1631	LL-Kramer	PME	cueing_effect	123	1	dot	right	208.844459433	-6.64435671143	1	right	208.844459433	-6.64435671143	1.40553264948	550.245476887	u	absent	0
SPC1_105	2015_Apr_09_1631	LL-Kramer	PME	cueing_effect	124	0					1	left	-194.696776434	10.1620394924	1.40553264948	561.054184567	y	present	1
SPC1_105	2015_Apr_09_1631	LL-Kramer	PME	cueing_effect	125	1	dot	right	185.939870611	-22.9486189171	1	right	185.939870611	-22.9486189171	1.40553264948	445.183828007	u	absent	0
SPC1_105	2015_Apr_09_1631	LL-Kramer	PME	cueing_effect	126	0					1	left	-204.412346269	6.09944219667	1.40553264948	673.133304343	y	present	1
SPC1_105	2015_Apr_09_1631	LL-Kramer	PME	cueing_effect	127	0					0					694.202485029	u	absent	1
SPC1_105	2015_Apr_09_1631	LL-Kramer	PME	cueing_effect	128	1	dot	left	-198.164032982	20.6211246833	1	left	-198.164032982	20.6211246833	1.40553264948	720.519270282	u	absent	0
SPC1_105	2015_Apr_09_1631	LL-Kramer	PME	cueing_effect	129	1	dot	left	-200	0	0					877.680291887	u	absent	1
SPC1_105	2015_Apr_09_1631	LL-Kramer	PME	cueing_effect	130	0					1	right	214.891027869	-17.5521393111	1.40553264948	469.290910289	u	absent	0
SPC1_105	2015_Apr_09_1631	LL-Kramer	PME	cueing_effect	131	0					1	right	208.490317116	-1.96634530673	1.40553264948	879.157716408	u	absent	0
SPC1_105	2015_Apr_09_1631	LL-Kramer	PME	cueing_effect	132	1	dot	left	-180.213559839	15.7792808992	1	left	-180.213559839	15.7792808992	1.40553264948	644.199736416	u	absent	0
SPC1_105	2015_Apr_09_1631	LL-Kramer	PME	cueing_effect	133	0					1	left	-201.323911721	13.0139256564	1.40553264948	547.581122722	u	absent	0
SPC1_105	2015_Apr_09_1631	LL-Kramer	PME	cueing_effect	134	0					1	right	218.908436046	20.908667152	1.40553264948	494.678895455	y	present	1
SPC1_105	2015_Apr_09_1631	LL-Kramer	PME	cueing_effect	135	0					1	right	206.62920825	2.82244583613	1.40553264948	560.749653261	u	absent	0
SPC1_105	2015_Apr_09_1631	LL-Kramer	PME	cueing_effect	136	1	dot	left	-191.000982949	-12.4466358385	1	left	-191.000982949	-12.4466358385	1.40553264948	635.914620943	u	absent	0
SPC1_105	2015_Apr_09_1631	LL-Kramer	PME	cueing_effect	137	1	dot	left	-180.152532313	18.3819271652	1	left	-180.152532313	18.3819271652	1.40553264948	841.115511488	u	absent	0
SPC1_105	2015_Apr_09_1631	LL-Kramer	PME	cueing_effect	138	0					1	left	-200.152103737	21.0906460845	1.40553264948	1141.85843477	u	absent	0
SPC1_105	2015_Apr_09_1631	LL-Kramer	PME	cueing_effect	139	1	dot	left	-186.559087982	-10.1893221016	1	left	-186.559087982	-10.1893221016	1.40553264948	794.716444798	u	absent	0
SPC1_105	2015_Apr_09_1631	LL-Kramer	PME	cueing_effect	140	0					1	left	-216.088139442	3.70315748339	1.40553264948	886.076536961	u	absent	0
SPC1_105	2015_Apr_09_1631	LL-Kramer	PME	cueing_effect	141	0					0					1083.50350289	u	absent	1
SPC1_105	2015_Apr_09_1631	LL-Kramer	PME	cueing_effect	142	0					1	left	-209.59450018	0.0428398069572	1.40553264948	2044.11488911	u	absent	0
SPC1_105	2015_Apr_09_1631	LL-Kramer	PME	cueing_effect	143	0					1	right	209.798349031	-6.20699238318	1.40553264948	1231.01467313	u	absent	0
SPC1_105	2015_Apr_09_1631	LL-Kramer	PME	cueing_effect	144	1	dot	left	-200	0	0					1801.94057664	u	absent	1
SPC1_105	2015_Apr_09_1631	LL-Kramer	PME	cueing_effect	145	1	dot	right	179.344350739	-7.34080775601	1	right	179.344350739	-7.34080775601	1.40553264948	836.059360299	u	absent	0
SPC1_105	2015_Apr_09_1631	LL-Kramer	PME	cueing_effect	146	1	dot	right	199.814283912	-21.5674103629	1	right	199.814283912	-21.5674103629	1.40553264948	970.785296522	u	absent	0
SPC1_105	2015_Apr_09_1631	LL-Kramer	PME	cueing_effect	147	1	dot	right	207.677990083	19.1229032957	1	right	207.677990083	19.1229032957	1.40553264948	1369.22107497	u	absent	0
SPC1_105	2015_Apr_09_1631	LL-Kramer	PME	cueing_effect	148	0					1	right	204.601349444	6.37477557785	1.40553264948	513.188221492	y	present	1
SPC1_105	2015_Apr_09_1631	LL-Kramer	PME	cueing_effect	149	1	dot	left	-200	0	0					527.648961637	u	absent	1
SPC1_105	2015_Apr_09_1631	LL-Kramer	PME	cueing_effect	150	1	dot	left	-200	0	0					459.152483847	u	absent	1
SPC1_105	2015_Apr_09_1631	LL-Kramer	PME	cueing_effect	151	1	dot	right	212.413277196	-8.83128726609	1	right	212.413277196	-8.83128726609	1.40553264948	910.440969747	u	absent	0
SPC1_105	2015_Apr_09_1631	LL-Kramer	PME	cueing_effect	152	0					0					969.241585117	u	absent	1
SPC1_105	2015_Apr_09_1631	LL-Kramer	PME	cueing_effect	153	1	dot	right	195.8160761	-0.984922680198	1	right	195.8160761	-0.984922680198	1.40553264948	594.318254385	y	present	1
SPC1_105	2015_Apr_09_1631	LL-Kramer	PME	cueing_effect	154	1	dot	left	-200	0	0					691.303006839	u	absent	1
SPC1_105	2015_Apr_09_1631	LL-Kramer	PME	cueing_effect	155	0					1	left	-188.847863268	2.90440857673	1.40553264948	844.111691229	u	absent	0
SPC1_105	2015_Apr_09_1631	LL-Kramer	PME	cueing_effect	156	1	dot	right	200	0	0					1095.51317757	u	absent	1
SPC1_105	2015_Apr_09_1631	LL-Kramer	PME	cueing_effect	157	0					1	left	-185.852919594	-14.0546560487	1.40553264948	819.546447601	u	absent	0
SPC1_105	2015_Apr_09_1631	LL-Kramer	PME	cueing_effect	158	1	dot	left	-218.710811949	10.7978920053	1	left	-218.710811949	10.7978920053	1.40553264948	868.460137397	u	absent	0
SPC1_105	2015_Apr_09_1631	LL-Kramer	PME	cueing_effect	159	1	dot	right	220.963409294	-9.36968281081	1	right	220.963409294	-9.36968281081	1.40553264948	887.339502573	u	absent	0
SPC1_105	2015_Apr_09_1631	LL-Kramer	PME	cueing_effect	160	1	dot	left	-200.913583622	13.1647152373	1	left	-200.913583622	13.1647152373	1.40553264948	1370.64975826	u	absent	0
SPC1_105	2015_Apr_09_1631	LL-Kramer	PME	cueing_effect	161	1	dot	right	215.137050816	2.52372120995	1	right	215.137050816	2.52372120995	1.40553264948	1556.26240186	u	absent	0
SPC1_105	2015_Apr_09_1631	LL-Kramer	PME	cueing_effect	162	1	dot	left	-178.95955978	-10.6674648244	1	left	-178.95955978	-10.6674648244	1.40553264948	452.7273071	u	absent	0
SPC1_105	2015_Apr_09_1631	LL-Kramer	PME	cueing_effect	163	0					0					610.8136205	u	absent	1
SPC1_105	2015_Apr_09_1631	LL-Kramer	PME	cueing_effect	164	1	dot	right	182.620422889	-1.34904482897	1	right	182.620422889	-1.34904482897	1.40553264948	861.140864436	u	absent	0
SPC1_105	2015_Apr_09_1631	LL-Kramer	PME	cueing_effect	165	0					1	left	-198.620600777	-13.2891619244	1.40553264948	1229.56688376	u	absent	0
SPC1_105	2015_Apr_09_1631	LL-Kramer	PME	cueing_effect	166	1	dot	left	-200	0	0					941.500406247	u	absent	1
SPC1_105	2015_Apr_09_1631	LL-Kramer	PME	cueing_effect	167	1	dot	right	200	0	0					1027.60431543	u	absent	1
SPC1_105	2015_Apr_09_1631	LL-Kramer	PME	cueing_effect	168	1	dot	left	-200	0	0					718.826218043	u	absent	1
SPC1_105	2015_Apr_09_1631	LL-Kramer	PME	cueing_effect	169	0					1	left	-178.414616261	16.3377904298	1.40553264948	677.664617077	u	absent	0
SPC1_105	2015_Apr_09_1631	LL-Kramer	PME	cueing_effect	170	1	dot	right	200	0	0					1147.83441788	u	absent	1
SPC1_105	2015_Apr_09_1631	LL-Kramer	PME	cueing_effect	171	0					1	right	195.050984341	-22.8332245202	1.40553264948	460.815511178	u	absent	0
SPC1_105	2015_Apr_09_1631	LL-Kramer	PME	cueing_effect	172	0					0					420.796779916	u	absent	1
SPC1_105	2015_Apr_09_1631	LL-Kramer	PME	cueing_effect	173	0					0					336.12467302	u	absent	1
SPC1_105	2015_Apr_09_1631	LL-Kramer	PME	cueing_effect	174	0					1	right	187.005293078	12.0464301591	1.40553264948	375.014183111	u	absent	0
SPC1_105	2015_Apr_09_1631	LL-Kramer	PME	cueing_effect	175	0					1	left	-208.457315225	14.5581846971	1.40553264948	402.555720881	u	absent	0
SPC1_105	2015_Apr_09_1631	LL-Kramer	PME	cueing_effect	176	0					0					506.559504662	u	absent	1
SPC1_105	2015_Apr_09_1631	LL-Kramer	PME	cueing_effect	177	1	dot	right	190.830904468	11.9372885853	1	right	190.830904468	11.9372885853	1.40553264948	548.263490666	y	present	1
SPC1_105	2015_Apr_09_1631	LL-Kramer	PME	cueing_effect	178	1	dot	left	-200	0	0					486.2771919	u	absent	1
SPC1_105	2015_Apr_09_1631	LL-Kramer	PME	cueing_effect	179	1	dot	right	203.362709362	-23.0804557355	1	right	203.362709362	-23.0804557355	1.40553264948	735.558268614	u	absent	0
SPC1_105	2015_Apr_09_1631	LL-Kramer	PME	cueing_effect	180	0					0					902.414373122	u	absent	1
SPC1_105	2015_Apr_09_1631	LL-Kramer	PME	cueing_effect	181	1	dot	left	-200	0	0					1136.83893671	u	absent	1
SPC1_105	2015_Apr_09_1631	LL-Kramer	PME	cueing_effect	182	1	dot	right	221.680787548	-13.016564302	1	right	221.680787548	-13.016564302	1.40553264948	575.287598651	u	absent	0
SPC1_105	2015_Apr_09_1631	LL-Kramer	PME	cueing_effect	183	1	dot	right	178.989362762	16.5025056784	1	right	178.989362762	16.5025056784	1.40553264948	570.823352784	u	absent	0
SPC1_105	2015_Apr_09_1631	LL-Kramer	PME	cueing_effect	184	0					1	left	-208.359680909	-6.07222376332	1.40553264948	594.289009459	u	absent	0
SPC1_105	2015_Apr_09_1631	LL-Kramer	PME	cueing_effect	185	0					1	left	-185.187124886	0.292463727895	1.40553264948	504.656283185	u	absent	0
SPC1_105	2015_Apr_09_1631	LL-Kramer	PME	cueing_effect	186	1	dot	right	176.663437031	5.84718181689	1	right	176.663437031	5.84718181689	1.40553264948	353.098476771	u	absent	0
SPC1_105	2015_Apr_09_1631	LL-Kramer	PME	cueing_effect	187	0					1	left	-182.517789728	10.0675584693	1.40553264948	327.443003654	u	absent	0
SPC1_105	2015_Apr_09_1631	LL-Kramer	PME	cueing_effect	188	0					1	right	193.501921795	-21.9956907724	1.40553264948	519.218404312	u	absent	0
SPC1_105	2015_Apr_09_1631	LL-Kramer	PME	cueing_effect	189	0					0					486.133309547	u	absent	1
SPC1_105	2015_Apr_09_1631	LL-Kramer	PME	cueing_effect	190	0					1	left	-210.344498675	13.1120884494	1.40553264948	1401.90181788	u	absent	0
SPC1_105	2015_Apr_09_1631	LL-Kramer	PME	cueing_effect	191	0					1	left	-180.365628184	-5.9390484374	1.40553264948	877.878764179	y	present	1
SPC1_105	2015_Apr_09_1631	LL-Kramer	PME	cueing_effect	192	1	dot	right	200	0	0					347.044898663	u	absent	1
SPC1_105	2015_Apr_09_1631	LL-Kramer	PME	cueing_effect	193	0					1	right	196.036155454	-19.319331335	1.40553264948	718.839085661	u	absent	0
SPC1_105	2015_Apr_09_1631	LL-Kramer	PME	cueing_effect	194	1	dot	right	181.78056042	22.7786337447	1	right	181.78056042	22.7786337447	1.40553264948	652.358517051	u	absent	0
SPC1_105	2015_Apr_09_1631	LL-Kramer	PME	cueing_effect	195	0					0					656.891389284	u	absent	1
SPC1_105	2015_Apr_09_1631	LL-Kramer	PME	cueing_effect	196	0					1	right	179.597162462	21.323022891	1.40553264948	762.861952651	u	absent	0
SPC1_105	2015_Apr_09_1631	LL-Kramer	PME	cueing_effect	197	1	dot	left	-188.648563184	-19.9807807762	1	left	-188.648563184	-19.9807807762	1.40553264948	544.028520584	u	absent	0
SPC1_105	2015_Apr_09_1631	LL-Kramer	PME	cueing_effect	198	1	dot	left	-215.135831153	-9.11043794807	1	left	-215.135831153	-9.11043794807	1.40553264948	538.09971828	u	absent	0
SPC1_105	2015_Apr_09_1631	LL-Kramer	PME	cueing_effect	199	1	dot	right	197.084346189	2.55851350267	1	right	197.084346189	2.55851350267	1.40553264948	329.290856142	u	absent	0
