subj_id	date	computer	experimenter	part	trial_ix	cue_present	cue_type	cue_loc	cue_pos_x	cue_pos_y	target_present	target_loc	target_pos_x	target_pos_y	target_opacity	rt	key	response	is_correct
SPC3_308	2015_Apr_15_1301	LL-George	AO	practice	0	0					0					1328.85079086		nogo	1
SPC3_308	2015_Apr_15_1301	LL-George	AO	practice	1	0					1	left	-181.082530212	16.7047439487	1.0	0.0	 	go	0
SPC3_308	2015_Apr_15_1301	LL-George	AO	practice	2	0					1	left	-216.520556592	7.64447413247	1.0	0.0	 	go	0
SPC3_308	2015_Apr_15_1301	LL-George	AO	practice	3	0					1	left	-189.179854187	-15.417901468	1.0	492.221682332	 	go	1
SPC3_308	2015_Apr_15_1301	LL-George	AO	practice	4	0					1	right	221.940326957	9.73988145522	1.0	761.247948743	 	go	1
SPC3_308	2015_Apr_15_1301	LL-George	AO	practice	5	0					1	left	-210.35144004	18.2606776037	1.0	486.986018717	 	go	1
SPC3_308	2015_Apr_15_1301	LL-George	AO	practice	6	0					1	right	187.337236557	-2.95492107994	1.0	1328.36305303		nogo	0
SPC3_308	2015_Apr_15_1301	LL-George	AO	practice	7	0					1	left	-188.529484514	-20.4918113694	1.0	0.0	 	go	0
SPC3_308	2015_Apr_15_1301	LL-George	AO	practice	8	0					1	right	198.428112018	-6.67916061633	1.0	390.282283071	 	go	1
SPC3_308	2015_Apr_15_1301	LL-George	AO	practice	9	0					1	right	212.922599991	-0.852275659588	1.0	461.417190265	 	go	1
SPC3_308	2015_Apr_15_1301	LL-George	AO	practice	0	0					1	left	-213.989337377	16.1338910661	1.0	478.385331109	 	go	1
SPC3_308	2015_Apr_15_1301	LL-George	AO	practice	1	0					1	right	181.875708141	2.58730012821	1.0	446.265780367	 	go	1
SPC3_308	2015_Apr_15_1301	LL-George	AO	practice	2	0					1	left	-200.600986551	18.1296026218	1.0	456.819986459	 	go	1
SPC3_308	2015_Apr_15_1301	LL-George	AO	practice	3	0					1	right	220.605350606	21.876023129	1.0	563.608892728	 	go	1
SPC3_308	2015_Apr_15_1301	LL-George	AO	practice	4	0					1	right	183.255058717	-9.02827993624	1.0	495.636580512	 	go	1
SPC3_308	2015_Apr_15_1301	LL-George	AO	practice	5	0					1	right	210.293584713	-5.29188541675	1.0	337.947650813	 	go	1
SPC3_308	2015_Apr_15_1301	LL-George	AO	practice	6	0					1	right	196.084383969	15.9277138995	1.0	272.999679204	 	go	1
SPC3_308	2015_Apr_15_1301	LL-George	AO	practice	7	0					1	left	-194.524567881	-14.1346119707	1.0	373.645656742	 	go	1
SPC3_308	2015_Apr_15_1301	LL-George	AO	practice	8	0					1	right	180.750834452	15.4717654741	1.0	408.760210965	 	go	1
SPC3_308	2015_Apr_15_1301	LL-George	AO	practice	9	0					1	left	-219.311029418	-23.9545197238	1.0	352.669631131	 	go	1
SPC3_308	2015_Apr_15_1301	LL-George	AO	cueing_effect	0	1	sound	left			1	left	-222.054097135	19.9123345289	1.0	0.0	 	go	0
SPC3_308	2015_Apr_15_1301	LL-George	AO	cueing_effect	1	1	sound	left			1	left	-189.004086321	15.6391789088	1.0	435.660600662	 	go	1
SPC3_308	2015_Apr_15_1301	LL-George	AO	cueing_effect	2	0					1	left	-185.631836034	10.5862445641	1.0	449.448544532	 	go	1
SPC3_308	2015_Apr_15_1301	LL-George	AO	cueing_effect	3	1	sound	left			1	left	-188.501784827	6.26104776024	1.0	472.34435007	 	go	1
SPC3_308	2015_Apr_15_1301	LL-George	AO	cueing_effect	4	1	sound	left			1	left	-209.304898457	0.659905973368	1.0	340.309695341	 	go	1
SPC3_308	2015_Apr_15_1301	LL-George	AO	cueing_effect	5	1	sound	right			1	right	209.28765787	-23.1600183396	1.0	377.403438091	 	go	1
SPC3_308	2015_Apr_15_1301	LL-George	AO	cueing_effect	6	1	sound	left			1	left	-192.854529515	-17.2323860859	1.0	459.953242913	 	go	1
SPC3_308	2015_Apr_15_1301	LL-George	AO	cueing_effect	7	1	sound	left			0					1327.62337849		nogo	1
SPC3_308	2015_Apr_15_1301	LL-George	AO	cueing_effect	8	1	sound	right			1	right	211.930552212	-11.6355400335	1.0	505.568095483	 	go	1
SPC3_308	2015_Apr_15_1301	LL-George	AO	cueing_effect	9	0					1	left	-221.948080156	11.6534902834	1.0	423.885583412	 	go	1
SPC3_308	2015_Apr_15_1301	LL-George	AO	cueing_effect	10	1	sound	right			1	right	203.364106598	-7.91980015302	1.0	414.478111546	 	go	1
SPC3_308	2015_Apr_15_1301	LL-George	AO	cueing_effect	11	1	sound	left			1	left	-189.896323831	-8.45862881739	1.0	436.041255947	 	go	1
SPC3_308	2015_Apr_15_1301	LL-George	AO	cueing_effect	12	0					1	right	183.169596037	-1.24134876413	1.0	304.813751951	 	go	1
SPC3_308	2015_Apr_15_1301	LL-George	AO	cueing_effect	13	1	sound	right			0					1336.26477234		nogo	1
SPC3_308	2015_Apr_15_1301	LL-George	AO	cueing_effect	14	0					1	right	197.126297705	2.75838445783	1.0	462.377630174	 	go	1
SPC3_308	2015_Apr_15_1301	LL-George	AO	cueing_effect	15	1	frame	left	-200	0	1	left	-200.214374882	-22.0965931515	1.0	435.943708289	 	go	1
SPC3_308	2015_Apr_15_1301	LL-George	AO	cueing_effect	16	1	frame	left	-200	0	1	left	-222.419318585	-12.6944612599	1.0	380.352234934	 	go	1
SPC3_308	2015_Apr_15_1301	LL-George	AO	cueing_effect	17	1	sound	right			0					1332.00165024		nogo	1
SPC3_308	2015_Apr_15_1301	LL-George	AO	cueing_effect	18	1	frame	right	200	0	1	right	202.912728635	-16.9287440931	1.0	603.571854532	 	go	1
SPC3_308	2015_Apr_15_1301	LL-George	AO	cueing_effect	19	1	frame	right	200	0	0					1335.8771489		nogo	1
SPC3_308	2015_Apr_15_1301	LL-George	AO	cueing_effect	20	1	sound	left			1	left	-191.464927211	-21.4967464116	1.0	406.178134494	 	go	1
SPC3_308	2015_Apr_15_1301	LL-George	AO	cueing_effect	21	1	frame	left	-200	0	1	left	-192.870108325	1.95427877075	1.0	673.140866216	 	go	1
SPC3_308	2015_Apr_15_1301	LL-George	AO	cueing_effect	22	0					0					834.28686671	 	go	0
SPC3_308	2015_Apr_15_1301	LL-George	AO	cueing_effect	23	1	frame	right	200	0	1	right	204.356542945	-3.7034862474	1.0	393.152968027	 	go	1
SPC3_308	2015_Apr_15_1301	LL-George	AO	cueing_effect	24	1	sound	left			1	left	-178.844533673	-10.9885633559	1.0	502.634334378	 	go	1
SPC3_308	2015_Apr_15_1301	LL-George	AO	cueing_effect	25	1	sound	left			1	left	-203.54160994	-10.3355062467	1.0	371.674902737	 	go	1
SPC3_308	2015_Apr_15_1301	LL-George	AO	cueing_effect	26	1	sound	left			1	left	-219.874958447	5.08871629873	1.0	382.966582663	 	go	1
SPC3_308	2015_Apr_15_1301	LL-George	AO	cueing_effect	27	1	frame	right	200	0	1	right	222.724142739	10.2722445984	1.0	361.121063586	 	go	1
SPC3_308	2015_Apr_15_1301	LL-George	AO	cueing_effect	28	1	frame	right	200	0	1	right	214.921368541	-4.74387242256	1.0	342.039514333	 	go	1
SPC3_308	2015_Apr_15_1301	LL-George	AO	cueing_effect	29	1	frame	right	200	0	1	right	205.558425433	-18.2063095235	1.0	343.243089505	 	go	1
SPC3_308	2015_Apr_15_1301	LL-George	AO	cueing_effect	30	1	sound	left			0					449.840201531	 	go	0
SPC3_308	2015_Apr_15_1301	LL-George	AO	cueing_effect	31	0					1	right	191.023454487	-6.20371139494	1.0	415.955993347	 	go	1
SPC3_308	2015_Apr_15_1301	LL-George	AO	cueing_effect	32	1	frame	left	-200	0	1	left	-189.633117397	19.7445243032	1.0	453.900893684	 	go	1
SPC3_308	2015_Apr_15_1301	LL-George	AO	cueing_effect	33	0					1	left	-194.150309436	-14.7658856983	1.0	353.168003261	 	go	1
SPC3_308	2015_Apr_15_1301	LL-George	AO	cueing_effect	34	1	frame	left	-200	0	1	left	-223.108495287	-18.7081475423	1.0	395.188998431	 	go	1
SPC3_308	2015_Apr_15_1301	LL-George	AO	cueing_effect	35	1	sound	left			1	left	-205.945925193	13.1656729717	1.0	585.062754806	 	go	1
SPC3_308	2015_Apr_15_1301	LL-George	AO	cueing_effect	36	1	frame	right	200	0	1	right	200.710033585	20.1175907938	1.0	373.642723076	 	go	1
SPC3_308	2015_Apr_15_1301	LL-George	AO	cueing_effect	37	1	frame	left	-200	0	1	left	-194.339252229	-18.0704243983	1.0	663.553335238	 	go	1
SPC3_308	2015_Apr_15_1301	LL-George	AO	cueing_effect	38	0					1	left	-203.83842284	-6.42681859683	1.0	371.997616254	 	go	1
SPC3_308	2015_Apr_15_1301	LL-George	AO	cueing_effect	39	1	frame	right	200	0	1	right	206.17327064	-16.8276611105	1.0	363.679302856	 	go	1
SPC3_308	2015_Apr_15_1301	LL-George	AO	cueing_effect	40	1	frame	right	200	0	1	right	196.763231337	-15.5124961876	1.0	413.713866845	 	go	1
SPC3_308	2015_Apr_15_1301	LL-George	AO	cueing_effect	41	0					1	left	-180.162123337	-11.7811979351	1.0	480.43383006	 	go	1
SPC3_308	2015_Apr_15_1301	LL-George	AO	cueing_effect	42	0					1	right	176.25255945	0.237039978508	1.0	370.783038903	 	go	1
SPC3_308	2015_Apr_15_1301	LL-George	AO	cueing_effect	43	1	sound	left			1	left	-202.18822142	-4.65451179773	1.0	344.554847572	 	go	1
SPC3_308	2015_Apr_15_1301	LL-George	AO	cueing_effect	44	1	sound	right			1	right	201.905173814	16.7782839203	1.0	502.537886612	 	go	1
SPC3_308	2015_Apr_15_1301	LL-George	AO	cueing_effect	45	0					1	left	-201.175717695	-6.71634714979	1.0	489.225578494	 	go	1
SPC3_308	2015_Apr_15_1301	LL-George	AO	cueing_effect	46	1	frame	right	200	0	1	right	207.206026096	21.2021944689	1.0	460.988127626	 	go	1
SPC3_308	2015_Apr_15_1301	LL-George	AO	cueing_effect	47	0					1	right	208.84524936	9.78261960613	1.0	434.016960673	 	go	1
SPC3_308	2015_Apr_15_1301	LL-George	AO	cueing_effect	48	0					1	right	207.85536688	2.50081485074	1.0	411.622461397	 	go	1
SPC3_308	2015_Apr_15_1301	LL-George	AO	cueing_effect	49	0					1	right	176.564219552	6.00624590896	1.0	404.903782066	 	go	1
SPC3_308	2015_Apr_15_1301	LL-George	AO	cueing_effect	50	1	frame	right	200	0	1	right	221.743222163	-10.4539348975	1.0	395.456704311	 	go	1
SPC3_308	2015_Apr_15_1301	LL-George	AO	cueing_effect	51	1	sound	left			1	left	-181.727130554	15.9592047443	1.0	446.175200865	 	go	1
SPC3_308	2015_Apr_15_1301	LL-George	AO	cueing_effect	52	0					1	right	207.37207138	-4.20976511311	1.0	389.890992083	 	go	1
SPC3_308	2015_Apr_15_1301	LL-George	AO	cueing_effect	53	1	frame	left	-200	0	1	left	-198.074641871	22.02900347	1.0	185.844602063	 	go	1
SPC3_308	2015_Apr_15_1301	LL-George	AO	cueing_effect	54	0					0					418.476827908	 	go	0
SPC3_308	2015_Apr_15_1301	LL-George	AO	cueing_effect	55	0					0					1328.81521853		nogo	1
SPC3_308	2015_Apr_15_1301	LL-George	AO	cueing_effect	56	0					1	right	193.465823279	-19.0546523416	1.0	443.682603538	 	go	1
SPC3_308	2015_Apr_15_1301	LL-George	AO	cueing_effect	57	1	frame	right	200	0	1	right	178.601652836	-2.57655032732	1.0	468.958056532	 	go	1
SPC3_308	2015_Apr_15_1301	LL-George	AO	cueing_effect	58	1	frame	left	-200	0	1	left	-195.07347571	-14.9598796413	1.0	315.273710992	 	go	1
SPC3_308	2015_Apr_15_1301	LL-George	AO	cueing_effect	59	0					0					1330.41008515		nogo	1
SPC3_308	2015_Apr_15_1301	LL-George	AO	cueing_effect	60	1	frame	right	200	0	1	right	182.801085709	6.16136932994	1.0	409.796928987	 	go	1
SPC3_308	2015_Apr_15_1301	LL-George	AO	cueing_effect	61	1	sound	left			1	left	-199.578673737	1.70036972855	1.0	402.90222317	 	go	1
SPC3_308	2015_Apr_15_1301	LL-George	AO	cueing_effect	62	1	frame	left	-200	0	1	left	-200.390227579	-14.6597636273	1.0	388.690351043	 	go	1
SPC3_308	2015_Apr_15_1301	LL-George	AO	cueing_effect	63	1	frame	left	-200	0	1	left	-204.645664735	-9.13504907377	1.0	344.73490715	 	go	1
SPC3_308	2015_Apr_15_1301	LL-George	AO	cueing_effect	64	0					0					1330.8127434		nogo	1
SPC3_308	2015_Apr_15_1301	LL-George	AO	cueing_effect	65	0					1	right	218.309408753	-11.6377654689	1.0	397.95810217	 	go	1
SPC3_308	2015_Apr_15_1301	LL-George	AO	cueing_effect	66	1	frame	right	200	0	1	right	211.702777917	-10.7744377537	1.0	341.835250612	 	go	1
SPC3_308	2015_Apr_15_1301	LL-George	AO	cueing_effect	67	1	sound	right			1	right	204.02756118	0.869102891228	1.0	336.10744914	 	go	1
SPC3_308	2015_Apr_15_1301	LL-George	AO	cueing_effect	68	1	sound	right			1	right	199.316653237	-14.3716856731	1.0	348.003483843	 	go	1
SPC3_308	2015_Apr_15_1301	LL-George	AO	cueing_effect	69	1	sound	right			1	right	178.422997033	1.36880449788	1.0	394.004492089	 	go	1
SPC3_308	2015_Apr_15_1301	LL-George	AO	cueing_effect	70	0					1	right	182.410197806	12.8585029796	1.0	473.46688062	 	go	1
SPC3_308	2015_Apr_15_1301	LL-George	AO	cueing_effect	71	0					1	right	197.790271867	-0.32110377669	1.0	412.099931389	 	go	1
SPC3_308	2015_Apr_15_1301	LL-George	AO	cueing_effect	72	0					1	left	-205.929360533	8.0208887088	1.0	393.428741489	 	go	1
SPC3_308	2015_Apr_15_1301	LL-George	AO	cueing_effect	73	1	sound	left			0					1328.74847576		nogo	1
SPC3_308	2015_Apr_15_1301	LL-George	AO	cueing_effect	74	0					1	left	-185.147455296	-7.0127343324	1.0	328.098647762	 	go	1
SPC3_308	2015_Apr_15_1301	LL-George	AO	cueing_effect	75	0					1	right	189.975352614	-7.10985932161	1.0	0.0	 	go	0
SPC3_308	2015_Apr_15_1301	LL-George	AO	cueing_effect	76	0					1	left	-208.826699376	11.7654968088	1.0	467.161127832	 	go	1
SPC3_308	2015_Apr_15_1301	LL-George	AO	cueing_effect	77	0					1	right	198.050484275	5.5758244952	1.0	355.476506986	 	go	1
SPC3_308	2015_Apr_15_1301	LL-George	AO	cueing_effect	78	1	frame	right	200	0	1	right	218.4491886	9.88543422222	1.0	415.659683291	 	go	1
SPC3_308	2015_Apr_15_1301	LL-George	AO	cueing_effect	79	0					1	left	-182.278329429	18.4164798654	1.0	403.733578045	 	go	1
SPC3_308	2015_Apr_15_1301	LL-George	AO	cueing_effect	80	1	frame	left	-200	0	1	left	-202.121538526	-3.25247489456	1.0	395.544350147	 	go	1
SPC3_308	2015_Apr_15_1301	LL-George	AO	cueing_effect	81	1	frame	right	200	0	1	right	210.997090499	-10.7737307597	1.0	394.583910238	 	go	1
SPC3_308	2015_Apr_15_1301	LL-George	AO	cueing_effect	82	1	sound	left			1	left	-206.434557839	14.639449254	1.0	404.064726084	 	go	1
SPC3_308	2015_Apr_15_1301	LL-George	AO	cueing_effect	83	0					1	left	-212.807582934	12.6622639469	1.0	403.176896274	 	go	1
SPC3_308	2015_Apr_15_1301	LL-George	AO	cueing_effect	84	1	sound	right			0					1335.27902793		nogo	1
SPC3_308	2015_Apr_15_1301	LL-George	AO	cueing_effect	85	1	frame	right	200	0	1	right	218.367314818	-14.2990674999	1.0	492.92981904	 	go	1
SPC3_308	2015_Apr_15_1301	LL-George	AO	cueing_effect	86	1	frame	left	-200	0	1	left	-177.309839301	6.07975320118	1.0	469.145816751	 	go	1
SPC3_308	2015_Apr_15_1301	LL-George	AO	cueing_effect	87	0					1	left	-191.658199806	-3.40275055927	1.0	619.812789373	 	go	1
SPC3_308	2015_Apr_15_1301	LL-George	AO	cueing_effect	88	1	sound	right			1	right	191.111297014	-15.7175499509	1.0	344.543479383	 	go	1
SPC3_308	2015_Apr_15_1301	LL-George	AO	cueing_effect	89	1	sound	left			0					769.222645089	 	go	0
SPC3_308	2015_Apr_15_1301	LL-George	AO	cueing_effect	90	0					1	right	220.788139078	10.5404559969	1.0	444.271923043	 	go	1
SPC3_308	2015_Apr_15_1301	LL-George	AO	cueing_effect	91	1	frame	left	-200	0	1	left	-193.822732254	19.573983981	1.0	435.993582476	 	go	1
SPC3_308	2015_Apr_15_1301	LL-George	AO	cueing_effect	92	1	sound	left			1	left	-221.923314878	-19.7600319709	1.0	426.041897852	 	go	1
SPC3_308	2015_Apr_15_1301	LL-George	AO	cueing_effect	93	1	frame	left	-200	0	1	left	-213.585712456	-19.0223769804	1.0	410.135778133	 	go	1
SPC3_308	2015_Apr_15_1301	LL-George	AO	cueing_effect	94	1	sound	right			1	right	220.096126606	13.9588569399	1.0	410.141645931	 	go	1
SPC3_308	2015_Apr_15_1301	LL-George	AO	cueing_effect	95	0					0					1328.28494161		nogo	1
SPC3_308	2015_Apr_15_1301	LL-George	AO	cueing_effect	96	1	sound	left			1	left	-212.660332572	3.20183610089	1.0	335.922622122	 	go	1
SPC3_308	2015_Apr_15_1301	LL-George	AO	cueing_effect	97	1	frame	left	-200	0	1	left	-183.919264886	8.97156890975	1.0	397.4578958	 	go	1
SPC3_308	2015_Apr_15_1301	LL-George	AO	cueing_effect	98	1	sound	right			1	right	220.661078109	-5.68676397788	1.0	436.486087739	 	go	1
SPC3_308	2015_Apr_15_1301	LL-George	AO	cueing_effect	99	0					1	left	-185.947505026	-23.661904202	1.0	477.920696605	 	go	1
SPC3_308	2015_Apr_15_1301	LL-George	AO	cueing_effect	100	1	sound	left			1	left	-186.84936177	4.03109298263	1.0	506.864817813	 	go	1
SPC3_308	2015_Apr_15_1301	LL-George	AO	cueing_effect	101	1	frame	left	-200	0	1	left	-205.724338619	-13.6050284455	1.0	382.90130673	 	go	1
SPC3_308	2015_Apr_15_1301	LL-George	AO	cueing_effect	102	0					1	right	198.226888511	18.5299819575	1.0	397.911162116	 	go	1
SPC3_308	2015_Apr_15_1301	LL-George	AO	cueing_effect	103	0					1	right	193.18322598	16.1480220328	1.0	361.007013358	 	go	1
SPC3_308	2015_Apr_15_1301	LL-George	AO	cueing_effect	104	1	frame	left	-200	0	1	left	-211.159219643	9.35857269982	1.0	380.402108654	 	go	1
SPC3_308	2015_Apr_15_1301	LL-George	AO	cueing_effect	105	1	frame	right	200	0	1	right	185.05745686	-22.9063592061	1.0	361.01948237	 	go	1
SPC3_308	2015_Apr_15_1301	LL-George	AO	cueing_effect	106	1	frame	right	200	0	1	right	180.523348623	4.19124919516	1.0	538.271097932	 	go	1
SPC3_308	2015_Apr_15_1301	LL-George	AO	cueing_effect	107	1	frame	left	-200	0	1	left	-204.837539575	10.590413758	1.0	359.50932838	 	go	1
SPC3_308	2015_Apr_15_1301	LL-George	AO	cueing_effect	108	1	sound	left			1	left	-212.623438248	-1.39975633009	1.0	312.772679143	 	go	1
SPC3_308	2015_Apr_15_1301	LL-George	AO	cueing_effect	109	1	sound	left			1	left	-206.139131808	-18.0528055593	1.0	364.684849977	 	go	1
SPC3_308	2015_Apr_15_1301	LL-George	AO	cueing_effect	110	1	sound	right			1	right	190.567031625	1.91287464887	1.0	392.218198162	 	go	1
SPC3_308	2015_Apr_15_1301	LL-George	AO	cueing_effect	111	1	sound	right			0					1335.04396072		nogo	1
SPC3_308	2015_Apr_15_1301	LL-George	AO	cueing_effect	112	0					1	left	-177.791122234	18.6402465504	1.0	554.27329801	 	go	1
SPC3_308	2015_Apr_15_1301	LL-George	AO	cueing_effect	113	0					0					1331.9803807		nogo	1
SPC3_308	2015_Apr_15_1301	LL-George	AO	cueing_effect	114	1	frame	right	200	0	1	right	207.156208828	20.5841477466	1.0	441.60476746	 	go	1
SPC3_308	2015_Apr_15_1301	LL-George	AO	cueing_effect	115	0					0					237.193490844	 	go	0
SPC3_308	2015_Apr_15_1301	LL-George	AO	cueing_effect	116	1	frame	right	200	0	1	right	214.506942239	5.05276091693	1.0	510.731148068	 	go	1
SPC3_308	2015_Apr_15_1301	LL-George	AO	cueing_effect	117	1	frame	left	-200	0	0					1336.24460222		nogo	1
SPC3_308	2015_Apr_15_1301	LL-George	AO	cueing_effect	118	1	frame	left	-200	0	1	left	-216.00209838	8.05340674207	1.0	527.787669096	 	go	1
SPC3_308	2015_Apr_15_1301	LL-George	AO	cueing_effect	119	1	sound	right			1	right	203.69902163	-5.67670086792	1.0	539.048911072	 	go	1
SPC3_308	2015_Apr_15_1301	LL-George	AO	cueing_effect	120	0					1	right	182.537877624	12.4010741595	1.0	381.73440285	 	go	1
SPC3_308	2015_Apr_15_1301	LL-George	AO	cueing_effect	121	1	frame	left	-200	0	1	left	-218.254657165	21.9572143575	1.0	336.306944489	 	go	1
SPC3_308	2015_Apr_15_1301	LL-George	AO	cueing_effect	122	0					1	right	185.3788666	-0.526446244004	1.0	344.756176695	 	go	1
SPC3_308	2015_Apr_15_1301	LL-George	AO	cueing_effect	123	0					1	left	-207.924197055	22.5723404281	1.0	321.400871035	 	go	1
SPC3_308	2015_Apr_15_1301	LL-George	AO	cueing_effect	124	0					1	right	179.964143053	5.75409077281	1.0	0.0	 	go	0
SPC3_308	2015_Apr_15_1301	LL-George	AO	cueing_effect	125	1	frame	right	200	0	0					1336.51927579		nogo	1
SPC3_308	2015_Apr_15_1301	LL-George	AO	cueing_effect	126	1	sound	right			1	right	210.488004549	-9.77242156457	1.0	391.333669424	 	go	1
SPC3_308	2015_Apr_15_1301	LL-George	AO	cueing_effect	127	0					1	right	218.740794308	-7.69741585683	1.0	335.75723134	 	go	1
SPC3_308	2015_Apr_15_1301	LL-George	AO	cueing_effect	128	0					1	right	199.289119627	12.1959893091	1.0	337.757689413	 	go	1
SPC3_308	2015_Apr_15_1301	LL-George	AO	cueing_effect	129	1	sound	left			0					1328.58345192		nogo	1
SPC3_308	2015_Apr_15_1301	LL-George	AO	cueing_effect	130	1	sound	right			1	right	194.890379605	-10.2017739002	1.0	349.82241597	 	go	1
SPC3_308	2015_Apr_15_1301	LL-George	AO	cueing_effect	131	1	sound	right			1	right	213.856507968	6.13378430751	1.0	547.476140317	 	go	1
SPC3_308	2015_Apr_15_1301	LL-George	AO	cueing_effect	132	0					1	left	-178.986397065	4.0150702	1.0	562.084803823	 	go	1
SPC3_308	2015_Apr_15_1301	LL-George	AO	cueing_effect	133	0					1	right	206.48130039	-13.7808219319	1.0	392.594086472	 	go	1
SPC3_308	2015_Apr_15_1301	LL-George	AO	cueing_effect	134	1	frame	left	-200	0	1	left	-187.42798628	13.1307885059	1.0	385.271785781	 	go	1
SPC3_308	2015_Apr_15_1301	LL-George	AO	cueing_effect	135	1	frame	right	200	0	1	right	219.606791319	19.8176750473	1.0	451.578455511	 	go	1
SPC3_308	2015_Apr_15_1301	LL-George	AO	cueing_effect	136	1	sound	right			1	right	208.028388656	2.7181552787	1.0	410.963831935	 	go	1
SPC3_308	2015_Apr_15_1301	LL-George	AO	cueing_effect	137	1	frame	right	200	0	1	right	185.081360009	-13.0093236911	1.0	711.129773408	 	go	1
SPC3_308	2015_Apr_15_1301	LL-George	AO	cueing_effect	138	0					1	right	218.524690358	-23.4047098071	1.0	385.181938764	 	go	1
SPC3_308	2015_Apr_15_1301	LL-George	AO	cueing_effect	139	0					1	left	-187.508598095	-9.09619516773	1.0	402.300435118	 	go	1
SPC3_308	2015_Apr_15_1301	LL-George	AO	cueing_effect	140	0					1	right	182.120904977	16.1846136839	1.0	383.694155142	 	go	1
SPC3_308	2015_Apr_15_1301	LL-George	AO	cueing_effect	141	1	frame	right	200	0	1	right	196.814046284	15.9521786549	1.0	402.741599828	 	go	1
SPC3_308	2015_Apr_15_1301	LL-George	AO	cueing_effect	142	0					1	left	-202.012610418	-3.54760115379	1.0	635.582488962	 	go	1
SPC3_308	2015_Apr_15_1301	LL-George	AO	cueing_effect	143	0					1	right	194.381733842	-13.3277075867	1.0	411.945542321	 	go	1
SPC3_308	2015_Apr_15_1301	LL-George	AO	cueing_effect	144	0					1	left	-200.582606063	20.3284976408	1.0	402.67449012	 	go	1
SPC3_308	2015_Apr_15_1301	LL-George	AO	cueing_effect	145	0					1	left	-203.435546519	3.82360183444	1.0	614.894338418	 	go	1
SPC3_308	2015_Apr_15_1301	LL-George	AO	cueing_effect	146	0					1	left	-220.591077927	7.3281827711	1.0	393.435342703	 	go	1
SPC3_308	2015_Apr_15_1301	LL-George	AO	cueing_effect	147	1	sound	right			1	right	198.570416641	1.37585543217	1.0	525.720467325	 	go	1
SPC3_308	2015_Apr_15_1301	LL-George	AO	cueing_effect	148	0					1	left	-205.856576492	5.49551176367	1.0	409.863671754	 	go	1
SPC3_308	2015_Apr_15_1301	LL-George	AO	cueing_effect	149	1	sound	left			0					1331.08081575		nogo	1
SPC3_308	2015_Apr_15_1301	LL-George	AO	cueing_effect	150	1	sound	left			1	left	-195.39627404	-8.10420210561	1.0	486.927710008	 	go	1
SPC3_308	2015_Apr_15_1301	LL-George	AO	cueing_effect	151	1	sound	right			1	right	191.180739422	16.20388078	1.0	404.141370673	 	go	1
SPC3_308	2015_Apr_15_1301	LL-George	AO	cueing_effect	152	0					1	left	-194.080740875	11.8380210214	1.0	469.658125192	 	go	1
SPC3_308	2015_Apr_15_1301	LL-George	AO	cueing_effect	153	1	frame	left	-200	0	1	left	-209.660907159	-7.32378434159	1.0	376.015035436	 	go	1
SPC3_308	2015_Apr_15_1301	LL-George	AO	cueing_effect	154	0					1	left	-214.601887189	7.44763905596	1.0	373.648957349	 	go	1
SPC3_308	2015_Apr_15_1301	LL-George	AO	cueing_effect	155	0					1	left	-194.69295069	10.2726319698	1.0	344.42466218	 	go	1
SPC3_308	2015_Apr_15_1301	LL-George	AO	cueing_effect	156	0					1	right	221.593160492	16.0133839045	1.0	442.137245089	 	go	1
SPC3_308	2015_Apr_15_1301	LL-George	AO	cueing_effect	157	1	sound	right			1	right	200.302707136	-13.6234240526	1.0	380.278890952	 	go	1
SPC3_308	2015_Apr_15_1301	LL-George	AO	cueing_effect	158	1	frame	left	-200	0	1	left	-217.916590048	9.20671582825	1.0	371.631996706	 	go	1
SPC3_308	2015_Apr_15_1301	LL-George	AO	cueing_effect	159	1	frame	left	-200	0	1	left	-185.976151949	3.27321014532	1.0	390.668072272	 	go	1
SPC3_308	2015_Apr_15_1301	LL-George	AO	cueing_effect	160	0					1	left	-190.717119908	-18.9325108592	1.0	378.035296686	 	go	1
SPC3_308	2015_Apr_15_1301	LL-George	AO	cueing_effect	161	1	frame	right	200	0	1	right	189.138778918	17.1950581178	1.0	505.797295365	 	go	1
SPC3_308	2015_Apr_15_1301	LL-George	AO	cueing_effect	162	1	frame	right	200	0	1	right	217.745255967	-19.4604708993	1.0	381.387119181	 	go	1
SPC3_308	2015_Apr_15_1301	LL-George	AO	cueing_effect	163	1	frame	left	-200	0	0					785.856704228	 	go	0
SPC3_308	2015_Apr_15_1301	LL-George	AO	cueing_effect	164	0					1	left	-180.310301403	-17.3900640582	1.0	394.11744196	 	go	1
SPC3_308	2015_Apr_15_1301	LL-George	AO	cueing_effect	165	1	sound	left			1	left	-218.791480855	-2.18401285747	1.0	453.738437034	 	go	1
SPC3_308	2015_Apr_15_1301	LL-George	AO	cueing_effect	166	1	frame	right	200	0	1	right	208.883535031	15.7878114948	1.0	520.391657017	 	go	1
SPC3_308	2015_Apr_15_1301	LL-George	AO	cueing_effect	167	1	sound	left			1	left	-217.029125347	-23.7342216477	1.0	372.943754308	 	go	1
SPC3_308	2015_Apr_15_1301	LL-George	AO	cueing_effect	168	1	frame	left	-200	0	0					1337.19550725		nogo	1
SPC3_308	2015_Apr_15_1301	LL-George	AO	cueing_effect	169	1	sound	right			1	right	189.511675716	-0.117383935351	1.0	477.559477556	 	go	1
SPC3_308	2015_Apr_15_1301	LL-George	AO	cueing_effect	170	1	sound	right			1	right	203.939954097	9.41516805188	1.0	1329.48668348		nogo	0
SPC3_308	2015_Apr_15_1301	LL-George	AO	cueing_effect	171	1	frame	right	200	0	1	right	211.227894518	3.22276561042	1.0	1330.12257656		nogo	0
SPC3_308	2015_Apr_15_1301	LL-George	AO	cueing_effect	172	1	sound	right			0					1332.12450147		nogo	1
SPC3_308	2015_Apr_15_1301	LL-George	AO	cueing_effect	173	0					1	right	204.502811633	-9.45560268837	1.0	598.886271007	 	go	1
SPC3_308	2015_Apr_15_1301	LL-George	AO	cueing_effect	174	1	frame	right	200	0	0					1336.72537236		nogo	1
SPC3_308	2015_Apr_15_1301	LL-George	AO	cueing_effect	175	1	frame	left	-200	0	1	left	-211.280321275	-14.5258503402	1.0	546.835847199	 	go	1
SPC3_308	2015_Apr_15_1301	LL-George	AO	cueing_effect	176	0					1	right	218.591578861	-22.0343869306	1.0	733.335044701	 	go	1
SPC3_308	2015_Apr_15_1301	LL-George	AO	cueing_effect	177	1	frame	left	-200	0	1	left	-218.73193823	11.740213995	1.0	419.748980086	 	go	1
SPC3_308	2015_Apr_15_1301	LL-George	AO	cueing_effect	178	0					1	right	209.486977329	-20.329774257	1.0	365.181388799	 	go	1
SPC3_308	2015_Apr_15_1301	LL-George	AO	cueing_effect	179	0					1	left	-191.008886417	1.03321297476	1.0	359.978730325	 	go	1
SPC3_308	2015_Apr_15_1301	LL-George	AO	cueing_effect	180	1	frame	right	200	0	1	right	210.151378705	-8.40841362964	1.0	67.1996334568	 	go	1
SPC3_308	2015_Apr_15_1301	LL-George	AO	cueing_effect	181	1	frame	left	-200	0	1	left	-184.258048375	-5.88129309972	1.0	410.527802072	 	go	1
SPC3_308	2015_Apr_15_1301	LL-George	AO	cueing_effect	182	1	sound	right			1	right	203.925995291	-6.40465912995	1.0	378.260829486	 	go	1
SPC3_308	2015_Apr_15_1301	LL-George	AO	cueing_effect	183	0					1	left	-211.872689335	-13.2153712613	1.0	336.336282082	 	go	1
SPC3_308	2015_Apr_15_1301	LL-George	AO	cueing_effect	184	0					1	left	-182.751251581	-10.4386757233	1.0	327.710657381	 	go	1
SPC3_308	2015_Apr_15_1301	LL-George	AO	cueing_effect	185	1	frame	right	200	0	1	right	186.594405034	-11.941623033	1.0	358.592161443	 	go	1
SPC3_308	2015_Apr_15_1301	LL-George	AO	cueing_effect	186	0					0					597.435526084	 	go	0
SPC3_308	2015_Apr_15_1301	LL-George	AO	cueing_effect	187	0					1	right	183.368367733	-2.00707735509	1.0	394.144946244	 	go	1
SPC3_308	2015_Apr_15_1301	LL-George	AO	cueing_effect	188	0					1	left	-194.501145497	-8.72961385664	1.0	279.409580398	 	go	1
SPC3_308	2015_Apr_15_1301	LL-George	AO	cueing_effect	189	0					1	left	-179.524827671	-4.52525749719	1.0	553.016914986	 	go	1
SPC3_308	2015_Apr_15_1301	LL-George	AO	cueing_effect	190	1	sound	left			1	left	-218.299712639	1.10468283721	1.0	593.986156397	 	go	1
SPC3_308	2015_Apr_15_1301	LL-George	AO	cueing_effect	191	0					1	left	-205.388375412	21.0670930671	1.0	574.732248206	 	go	1
SPC3_308	2015_Apr_15_1301	LL-George	AO	cueing_effect	192	1	sound	left			1	left	-214.098442546	-21.5958200681	1.0	410.369012039	 	go	1
SPC3_308	2015_Apr_15_1301	LL-George	AO	cueing_effect	193	1	frame	right	200	0	1	right	215.936913723	-4.30630877787	1.0	406.969149597	 	go	1
SPC3_308	2015_Apr_15_1301	LL-George	AO	cueing_effect	194	1	sound	left			1	left	-183.927915965	-20.9064678249	1.0	430.74361654	 	go	1
SPC3_308	2015_Apr_15_1301	LL-George	AO	cueing_effect	195	1	sound	right			1	right	193.999710293	5.64522445313	1.0	456.475269049	 	go	1
SPC3_308	2015_Apr_15_1301	LL-George	AO	cueing_effect	196	0					1	left	-196.202186903	1.93839818027	1.0	404.116433579	 	go	1
SPC3_308	2015_Apr_15_1301	LL-George	AO	cueing_effect	197	1	frame	left	-200	0	0					844.05812528	 	go	0
SPC3_308	2015_Apr_15_1301	LL-George	AO	cueing_effect	198	0					1	left	-196.002548514	-19.9131715318	1.0	472.784414422	 	go	1
SPC3_308	2015_Apr_15_1301	LL-George	AO	cueing_effect	199	1	sound	right			1	right	212.82684958	-12.7929088807	1.0	370.896355715	 	go	1
SPC3_308	2015_Apr_15_1301	LL-George	AO	cueing_effect	200	1	sound	right			1	right	178.567084883	6.07239055333	1.0	335.797203705	 	go	1
SPC3_308	2015_Apr_15_1301	LL-George	AO	cueing_effect	201	1	frame	left	-200	0	1	left	-182.561957493	-19.0971303736	1.0	389.017098583	 	go	1
SPC3_308	2015_Apr_15_1301	LL-George	AO	cueing_effect	202	1	frame	left	-200	0	1	left	-195.147167218	-16.0690604052	1.0	335.492459126	 	go	1
SPC3_308	2015_Apr_15_1301	LL-George	AO	cueing_effect	203	1	frame	left	-200	0	0					1336.90873254		nogo	1
SPC3_308	2015_Apr_15_1301	LL-George	AO	cueing_effect	204	1	sound	right			1	right	184.274076921	19.0833696527	1.0	388.757460285	 	go	1
SPC3_308	2015_Apr_15_1301	LL-George	AO	cueing_effect	205	0					1	right	189.591385315	-21.2429928866	1.0	463.973963168	 	go	1
SPC3_308	2015_Apr_15_1301	LL-George	AO	cueing_effect	206	1	frame	left	-200	0	1	left	-204.834269516	-10.6157061083	1.0	339.670501649	 	go	1
SPC3_308	2015_Apr_15_1301	LL-George	AO	cueing_effect	207	1	sound	left			1	left	-207.160616829	20.7699434015	1.0	370.704194065	 	go	1
SPC3_308	2015_Apr_15_1301	LL-George	AO	cueing_effect	208	0					1	left	-207.329265791	-20.4026893519	1.0	420.406876132	 	go	1
SPC3_308	2015_Apr_15_1301	LL-George	AO	cueing_effect	209	1	sound	left			1	left	-222.81227127	12.4513687428	1.0	485.369516071	 	go	1
SPC3_308	2015_Apr_15_1301	LL-George	AO	cueing_effect	210	1	frame	left	-200	0	0					1331.53738268		nogo	1
SPC3_308	2015_Apr_15_1301	LL-George	AO	cueing_effect	211	1	frame	right	200	0	1	right	193.373619348	8.02179520706	1.0	385.714783333	 	go	1
SPC3_308	2015_Apr_15_1301	LL-George	AO	cueing_effect	212	1	sound	left			0					1335.9926655		nogo	1
SPC3_308	2015_Apr_15_1301	LL-George	AO	cueing_effect	213	1	sound	left			1	left	-221.602871339	-20.3388323495	1.0	484.939354006	 	go	1
SPC3_308	2015_Apr_15_1301	LL-George	AO	cueing_effect	214	1	frame	left	-200	0	1	left	-205.559316831	-19.6172616114	1.0	389.406555332	 	go	1
SPC3_308	2015_Apr_15_1301	LL-George	AO	cueing_effect	215	1	sound	left			1	left	-178.005833556	-5.79557760591	1.0	494.025945663	 	go	1
SPC3_308	2015_Apr_15_1301	LL-George	AO	cueing_effect	216	1	sound	left			1	left	-220.55222522	-1.02837650716	1.0	385.700481012	 	go	1
SPC3_308	2015_Apr_15_1301	LL-George	AO	cueing_effect	217	1	sound	right			1	right	193.795984066	-17.6760108365	1.0	381.766307633	 	go	1
SPC3_308	2015_Apr_15_1301	LL-George	AO	cueing_effect	218	1	frame	left	-200	0	1	left	-213.334722712	-5.95547768463	1.0	304.561815225	 	go	1
SPC3_308	2015_Apr_15_1301	LL-George	AO	cueing_effect	219	1	sound	left			1	left	-190.705923298	3.54215761494	1.0	435.81718998	 	go	1
SPC3_308	2015_Apr_15_1301	LL-George	AO	cueing_effect	220	1	frame	left	-200	0	1	left	-212.904297671	-17.44319265	1.0	337.986523286	 	go	1
SPC3_308	2015_Apr_15_1301	LL-George	AO	cueing_effect	221	0					1	left	-205.46462742	20.9375177203	1.0	381.498601753	 	go	1
SPC3_308	2015_Apr_15_1301	LL-George	AO	cueing_effect	222	1	frame	left	-200	0	1	left	-178.791732427	11.0894555748	1.0	673.07889089	 	go	1
SPC3_308	2015_Apr_15_1301	LL-George	AO	cueing_effect	223	1	sound	right			1	right	182.642730913	8.670765958	1.0	434.775704984	 	go	1
SPC3_308	2015_Apr_15_1301	LL-George	AO	cueing_effect	224	1	sound	right			1	right	199.365225465	2.36052666493	1.0	380.745358765	 	go	1
SPC3_308	2015_Apr_15_1301	LL-George	AO	cueing_effect	225	0					0					1335.9677284		nogo	1
SPC3_308	2015_Apr_15_1301	LL-George	AO	cueing_effect	226	1	frame	right	200	0	1	right	199.864216475	-21.636211025	1.0	639.812239446	 	go	1
SPC3_308	2015_Apr_15_1301	LL-George	AO	cueing_effect	227	0					1	left	-222.250861365	-5.08188896945	1.0	411.637864076	 	go	1
SPC3_308	2015_Apr_15_1301	LL-George	AO	cueing_effect	228	1	sound	left			1	left	-182.375614428	-5.09077784873	1.0	1328.49287149		nogo	0
SPC3_308	2015_Apr_15_1301	LL-George	AO	cueing_effect	229	1	frame	left	-200	0	1	left	-196.16295625	0.0952832588811	1.0	391.050194856	 	go	1
SPC3_308	2015_Apr_15_1301	LL-George	AO	cueing_effect	230	0					1	right	201.093089354	-21.5160432778	1.0	470.708778128	 	go	1
SPC3_308	2015_Apr_15_1301	LL-George	AO	cueing_effect	231	0					1	left	-221.873309233	4.38994488444	1.0	388.37460475	 	go	1
SPC3_308	2015_Apr_15_1301	LL-George	AO	cueing_effect	232	0					1	right	197.800276234	-13.9372380498	1.0	529.157368932	 	go	1
SPC3_308	2015_Apr_15_1301	LL-George	AO	cueing_effect	233	1	sound	left			1	left	-195.51322192	-12.5086866015	1.0	409.93921645	 	go	1
SPC3_308	2015_Apr_15_1301	LL-George	AO	cueing_effect	234	1	sound	right			1	right	180.332844496	0.115749981615	1.0	0.0	 	go	0
SPC3_308	2015_Apr_15_1301	LL-George	AO	cueing_effect	235	1	sound	right			0					401.982855983	 	go	0
SPC3_308	2015_Apr_15_1301	LL-George	AO	cueing_effect	236	0					1	left	-216.300057524	-15.759614886	1.0	322.93706201	 	go	1
SPC3_308	2015_Apr_15_1301	LL-George	AO	cueing_effect	237	1	frame	right	200	0	0					1336.69346757		nogo	1
SPC3_308	2015_Apr_15_1301	LL-George	AO	cueing_effect	238	1	frame	right	200	0	0					1328.90579896		nogo	1
SPC3_308	2015_Apr_15_1301	LL-George	AO	cueing_effect	239	1	sound	left			1	left	-211.034851483	-0.459765857703	1.0	443.494842853	 	go	1
SPC3_308	2015_Apr_15_1301	LL-George	AO	cueing_effect	240	1	frame	right	200	0	1	right	209.706713325	22.6570314197	1.0	387.006371748	 	go	1
SPC3_308	2015_Apr_15_1301	LL-George	AO	cueing_effect	241	1	frame	left	-200	0	1	left	-220.743656041	-9.56228142132	1.0	305.741920602	 	go	1
SPC3_308	2015_Apr_15_1301	LL-George	AO	cueing_effect	242	1	frame	left	-200	0	1	left	-218.268967283	6.23558748699	1.0	360.275773332	 	go	1
SPC3_308	2015_Apr_15_1301	LL-George	AO	cueing_effect	243	1	frame	right	200	0	1	right	221.24968579	8.14273944992	1.0	325.240797363	 	go	1
SPC3_308	2015_Apr_15_1301	LL-George	AO	cueing_effect	244	1	sound	right			1	right	207.251419504	-22.7690534246	1.0	336.258538067	 	go	1
SPC3_308	2015_Apr_15_1301	LL-George	AO	cueing_effect	245	0					1	right	205.264689171	-5.32451511577	1.0	356.383772567	 	go	1
SPC3_308	2015_Apr_15_1301	LL-George	AO	cueing_effect	246	1	sound	left			1	left	-205.697176244	-7.66786817677	1.0	329.214577097	 	go	1
SPC3_308	2015_Apr_15_1301	LL-George	AO	cueing_effect	247	0					0					1335.21888638		nogo	1
SPC3_308	2015_Apr_15_1301	LL-George	AO	cueing_effect	248	0					1	right	205.262905567	6.79106752662	1.0	402.688791975	 	go	1
SPC3_308	2015_Apr_15_1301	LL-George	AO	cueing_effect	249	0					1	right	185.822817959	7.17214949301	1.0	417.699381243	 	go	1
SPC3_308	2015_Apr_15_1301	LL-George	AO	cueing_effect	250	1	sound	left			1	left	-180.304595437	8.16637425797	1.0	343.396378681	 	go	1
SPC3_308	2015_Apr_15_1301	LL-George	AO	cueing_effect	251	1	sound	left			1	left	-205.415420121	6.14217212356	1.0	357.109145261	 	go	1
SPC3_308	2015_Apr_15_1301	LL-George	AO	cueing_effect	252	1	sound	left			1	left	-205.572322737	12.1817409099	1.0	374.417969026	 	go	1
SPC3_308	2015_Apr_15_1301	LL-George	AO	cueing_effect	253	0					1	right	207.06702574	4.13964956783	1.0	388.590603136	 	go	1
SPC3_308	2015_Apr_15_1301	LL-George	AO	cueing_effect	254	1	sound	left			1	left	-205.217589723	-15.237059647	1.0	382.111757994	 	go	1
SPC3_308	2015_Apr_15_1301	LL-George	AO	cueing_effect	255	1	sound	right			1	right	191.016241393	-4.35750439699	1.0	372.892046813	 	go	1
SPC3_308	2015_Apr_15_1301	LL-George	AO	cueing_effect	256	1	frame	left	-200	0	1	left	-213.51128129	1.0701636499	1.0	406.681641005	 	go	1
SPC3_308	2015_Apr_15_1301	LL-George	AO	cueing_effect	257	1	frame	left	-200	0	1	left	-207.621107994	2.50458861908	1.0	186.767636798	 	go	1
SPC3_308	2015_Apr_15_1301	LL-George	AO	cueing_effect	258	0					1	right	219.59755325	13.9697897636	1.0	391.169745475	 	go	1
SPC3_308	2015_Apr_15_1301	LL-George	AO	cueing_effect	259	0					1	right	188.152991483	14.8572155628	1.0	534.115424845	 	go	1
SPC3_308	2015_Apr_15_1301	LL-George	AO	cueing_effect	260	1	frame	left	-200	0	1	left	-196.956206656	-0.746295103892	1.0	484.341233037	 	go	1
SPC3_308	2015_Apr_15_1301	LL-George	AO	cueing_effect	261	0					1	left	-181.512479115	13.468807276	1.0	407.905753236	 	go	1
SPC3_308	2015_Apr_15_1301	LL-George	AO	cueing_effect	262	1	sound	left			1	left	-205.654490041	-15.2425163326	1.0	408.784781117	 	go	1
SPC3_308	2015_Apr_15_1301	LL-George	AO	cueing_effect	263	0					1	right	189.985648826	-15.6188259695	1.0	420.222416054	 	go	1
SPC3_308	2015_Apr_15_1301	LL-George	AO	cueing_effect	264	0					1	right	181.117936421	7.16814054923	1.0	404.548429884	 	go	1
SPC3_308	2015_Apr_15_1301	LL-George	AO	cueing_effect	265	0					1	left	-187.007515519	10.9798121153	1.0	474.884987343	 	go	1
SPC3_308	2015_Apr_15_1301	LL-George	AO	cueing_effect	266	1	frame	right	200	0	1	right	199.334270631	6.96817157232	1.0	401.246848516	 	go	1
SPC3_308	2015_Apr_15_1301	LL-George	AO	cueing_effect	267	0					0					1328.23176729		nogo	1
SPC3_308	2015_Apr_15_1301	LL-George	AO	cueing_effect	268	0					1	right	193.058968496	10.8968854549	1.0	653.160852846	 	go	1
SPC3_308	2015_Apr_15_1301	LL-George	AO	cueing_effect	269	1	sound	left			1	left	-213.321875041	-12.4127924167	1.0	586.396149825	 	go	1
SPC3_308	2015_Apr_15_1301	LL-George	AO	cueing_effect	270	1	frame	left	-200	0	1	left	-185.919275494	-11.9391143967	1.0	52.9426541179	 	go	1
SPC3_308	2015_Apr_15_1301	LL-George	AO	cueing_effect	271	0					1	left	-196.72510973	-21.9209269876	1.0	374.753151555	 	go	1
SPC3_308	2015_Apr_15_1301	LL-George	AO	cueing_effect	272	1	frame	right	200	0	0					1336.38102189		nogo	1
SPC3_308	2015_Apr_15_1301	LL-George	AO	cueing_effect	273	1	sound	right			0					1336.4796699		nogo	1
SPC3_308	2015_Apr_15_1301	LL-George	AO	cueing_effect	274	0					1	right	189.666149126	12.7530208569	1.0	436.379005201	 	go	1
SPC3_308	2015_Apr_15_1301	LL-George	AO	cueing_effect	275	1	sound	left			1	left	-211.908003607	-19.7779755395	1.0	439.971762244	 	go	1
SPC3_308	2015_Apr_15_1301	LL-George	AO	cueing_effect	276	1	frame	left	-200	0	1	left	-215.683550761	15.3029100522	1.0	387.041576672	 	go	1
SPC3_308	2015_Apr_15_1301	LL-George	AO	cueing_effect	277	0					1	left	-204.191974225	-6.56355830554	1.0	422.520284075	 	go	1
SPC3_308	2015_Apr_15_1301	LL-George	AO	cueing_effect	278	1	sound	right			1	right	215.120445426	9.95481726109	1.0	389.449461363	 	go	1
SPC3_308	2015_Apr_15_1301	LL-George	AO	cueing_effect	279	0					1	right	189.790292177	-20.1837201466	1.0	736.511941534	 	go	1
SPC3_308	2015_Apr_15_1301	LL-George	AO	cueing_effect	280	0					0					1337.24904899		nogo	1
SPC3_308	2015_Apr_15_1301	LL-George	AO	cueing_effect	281	0					1	left	-177.024428399	-19.2483450331	1.0	1328.90359825		nogo	0
SPC3_308	2015_Apr_15_1301	LL-George	AO	cueing_effect	282	0					0					1335.48365766		nogo	1
SPC3_308	2015_Apr_15_1301	LL-George	AO	cueing_effect	283	1	sound	right			0					1332.42594544		nogo	1
SPC3_308	2015_Apr_15_1301	LL-George	AO	cueing_effect	284	1	sound	right			1	right	209.818023453	-21.2814923668	1.0	353.18817338	 	go	1
SPC3_308	2015_Apr_15_1301	LL-George	AO	cueing_effect	285	0					1	left	-209.353049127	-22.2381514744	1.0	419.758881442	 	go	1
SPC3_308	2015_Apr_15_1301	LL-George	AO	cueing_effect	286	0					1	left	-205.624874184	15.4283043031	1.0	445.919230115	 	go	1
SPC3_308	2015_Apr_15_1301	LL-George	AO	cueing_effect	287	0					1	left	-219.651394555	15.741947153	1.0	445.702498313	 	go	1
SPC3_308	2015_Apr_15_1301	LL-George	AO	cueing_effect	288	1	frame	left	-200	0	1	left	-198.159423465	14.1677838488	1.0	476.295026485	 	go	1
SPC3_308	2015_Apr_15_1301	LL-George	AO	cueing_effect	289	1	sound	left			1	left	-180.573309359	-5.49095849119	1.0	508.157506119	 	go	1
SPC3_308	2015_Apr_15_1301	LL-George	AO	cueing_effect	290	1	sound	left			1	left	-219.112390746	-9.17974800897	1.0	328.02273659	 	go	1
SPC3_308	2015_Apr_15_1301	LL-George	AO	cueing_effect	291	0					1	right	193.654337663	-3.15875391703	1.0	369.357598014	 	go	1
SPC3_308	2015_Apr_15_1301	LL-George	AO	cueing_effect	292	1	frame	left	-200	0	1	left	-204.603486125	3.41889566426	1.0	349.228695966	 	go	1
SPC3_308	2015_Apr_15_1301	LL-George	AO	cueing_effect	293	1	frame	left	-200	0	1	left	-193.199909487	19.846441894	1.0	344.476736151	 	go	1
SPC3_308	2015_Apr_15_1301	LL-George	AO	cueing_effect	294	1	sound	right			1	right	199.15619559	-19.9094650168	1.0	361.187439878	 	go	1
SPC3_308	2015_Apr_15_1301	LL-George	AO	cueing_effect	295	0					1	right	202.756515943	0.950956103306	1.0	454.764886294	 	go	1
SPC3_308	2015_Apr_15_1301	LL-George	AO	cueing_effect	296	1	sound	right			0					1336.93073597		nogo	1
SPC3_308	2015_Apr_15_1301	LL-George	AO	cueing_effect	297	1	sound	right			1	right	219.081034627	-21.2962582587	1.0	344.540912192	 	go	1
SPC3_308	2015_Apr_15_1301	LL-George	AO	cueing_effect	298	0					1	left	-185.826144132	-14.8230331067	1.0	469.120513182	 	go	1
SPC3_308	2015_Apr_15_1301	LL-George	AO	cueing_effect	299	1	frame	right	200	0	0					1337.19844138		nogo	1
SPC3_308	2015_Apr_15_1301	LL-George	AO	cueing_effect	300	0					0					1335.93288995		nogo	1
SPC3_308	2015_Apr_15_1301	LL-George	AO	cueing_effect	301	0					1	right	189.081389999	19.9842923367	1.0	394.44895694	 	go	1
SPC3_308	2015_Apr_15_1301	LL-George	AO	cueing_effect	302	1	frame	left	-200	0	1	left	-184.362356031	-5.08124930613	1.0	549.676461145	 	go	1
SPC3_308	2015_Apr_15_1301	LL-George	AO	cueing_effect	303	0					1	right	183.535243894	21.5609142154	1.0	377.240247093	 	go	1
SPC3_308	2015_Apr_15_1301	LL-George	AO	cueing_effect	304	0					1	right	193.620892399	-9.48954717989	1.0	362.098373007	 	go	1
SPC3_308	2015_Apr_15_1301	LL-George	AO	cueing_effect	305	0					0					1325.92143025		nogo	1
SPC3_308	2015_Apr_15_1301	LL-George	AO	cueing_effect	306	1	frame	right	200	0	1	right	195.519524282	-9.69815466695	1.0	347.988815047	 	go	1
SPC3_308	2015_Apr_15_1301	LL-George	AO	cueing_effect	307	0					1	right	188.204882109	-18.1665264621	1.0	384.423928801	 	go	1
SPC3_308	2015_Apr_15_1301	LL-George	AO	cueing_effect	308	1	sound	left			1	left	-185.615070909	-8.10432828964	1.0	354.133578017	 	go	1
SPC3_308	2015_Apr_15_1301	LL-George	AO	cueing_effect	309	1	sound	left			1	left	-206.891169137	0.227212769295	1.0	388.321796898	 	go	1
SPC3_308	2015_Apr_15_1301	LL-George	AO	cueing_effect	310	1	frame	left	-200	0	0					1337.97772182		nogo	1
SPC3_308	2015_Apr_15_1301	LL-George	AO	cueing_effect	311	0					0					1335.66115052		nogo	1
SPC3_308	2015_Apr_15_1301	LL-George	AO	cueing_effect	312	0					1	right	180.354427358	-9.33802485309	1.0	403.145358432	 	go	1
SPC3_308	2015_Apr_15_1301	LL-George	AO	cueing_effect	313	1	sound	left			1	left	-219.603112896	22.6305877256	1.0	347.356589511	 	go	1
SPC3_308	2015_Apr_15_1301	LL-George	AO	cueing_effect	314	1	sound	left			1	left	-221.937365713	7.26110156234	1.0	424.121750984	 	go	1
SPC3_308	2015_Apr_15_1301	LL-George	AO	cueing_effect	315	1	sound	right			1	right	183.803371042	-21.2649315403	1.0	402.610680554	 	go	1
SPC3_308	2015_Apr_15_1301	LL-George	AO	cueing_effect	316	0					1	right	192.452076301	8.76083471252	1.0	382.440705784	 	go	1
SPC3_308	2015_Apr_15_1301	LL-George	AO	cueing_effect	317	1	frame	right	200	0	1	right	202.259097833	21.0730456809	1.0	388.307128102	 	go	1
SPC3_308	2015_Apr_15_1301	LL-George	AO	cueing_effect	318	1	frame	left	-200	0	1	left	-217.558762168	18.3760013945	1.0	470.329956617	 	go	1
SPC3_308	2015_Apr_15_1301	LL-George	AO	cueing_effect	319	1	frame	left	-200	0	0					1323.8953012		nogo	1
SPC3_308	2015_Apr_15_1301	LL-George	AO	cueing_effect	320	1	sound	right			1	right	185.471768847	-19.8187229202	1.0	367.584872525	 	go	1
SPC3_308	2015_Apr_15_1301	LL-George	AO	cueing_effect	321	0					1	right	195.327728398	-4.10837452803	1.0	541.543708649	 	go	1
SPC3_308	2015_Apr_15_1301	LL-George	AO	cueing_effect	322	1	sound	left			1	left	-194.082690028	1.40637525962	1.0	374.364428222	 	go	1
SPC3_308	2015_Apr_15_1301	LL-George	AO	cueing_effect	323	1	frame	right	200	0	0					1327.62631215		nogo	1
SPC3_308	2015_Apr_15_1301	LL-George	AO	cueing_effect	324	0					1	left	-182.874063412	7.03460144738	1.0	471.050927881	 	go	1
SPC3_308	2015_Apr_15_1301	LL-George	AO	cueing_effect	325	1	sound	left			1	left	-179.960535937	-20.2023193407	1.0	519.684253726	 	go	1
SPC3_308	2015_Apr_15_1301	LL-George	AO	cueing_effect	326	1	frame	left	-200	0	1	left	-194.674540489	-20.7938559544	1.0	366.784323007	 	go	1
SPC3_308	2015_Apr_15_1301	LL-George	AO	cueing_effect	327	0					1	left	-179.768898036	-1.7841607559	1.0	377.483749762	 	go	1
SPC3_308	2015_Apr_15_1301	LL-George	AO	cueing_effect	328	1	frame	right	200	0	1	right	189.061256165	-21.8536792021	1.0	378.470960073	 	go	1
SPC3_308	2015_Apr_15_1301	LL-George	AO	cueing_effect	329	0					0					1336.40375873		nogo	1
SPC3_308	2015_Apr_15_1301	LL-George	AO	cueing_effect	330	1	frame	left	-200	0	0					1336.45289904		nogo	1
SPC3_308	2015_Apr_15_1301	LL-George	AO	cueing_effect	331	1	frame	left	-200	0	1	left	-223.295504503	12.7215021795	1.0	437.921796925	 	go	1
SPC3_308	2015_Apr_15_1301	LL-George	AO	cueing_effect	332	0					1	left	-201.095022971	-22.9747429962	1.0	380.57373371	 	go	1
SPC3_308	2015_Apr_15_1301	LL-George	AO	cueing_effect	333	0					1	left	-220.773404902	-6.93167246536	1.0	373.164519668	 	go	1
SPC3_308	2015_Apr_15_1301	LL-George	AO	cueing_effect	334	1	frame	left	-200	0	0					1323.87989899		nogo	1
SPC3_308	2015_Apr_15_1301	LL-George	AO	cueing_effect	335	1	sound	right			1	right	196.805126643	19.2769318872	1.0	400.779280346	 	go	1
SPC3_308	2015_Apr_15_1301	LL-George	AO	cueing_effect	336	1	frame	right	200	0	1	right	214.192169127	-17.0983498114	1.0	387.508411426	 	go	1
SPC3_308	2015_Apr_15_1301	LL-George	AO	cueing_effect	337	1	sound	right			1	right	190.067188152	6.59546328861	1.0	423.995599616	 	go	1
SPC3_308	2015_Apr_15_1301	LL-George	AO	cueing_effect	338	1	sound	left			1	left	-193.229214266	8.83171440614	1.0	1335.52619768		nogo	0
SPC3_308	2015_Apr_15_1301	LL-George	AO	cueing_effect	339	1	sound	left			1	left	-201.085408137	16.0086829976	1.0	717.946000397	 	go	1
SPC3_308	2015_Apr_15_1301	LL-George	AO	cueing_effect	340	1	frame	right	200	0	1	right	194.441101405	22.1554089183	1.0	381.377950776	 	go	1
SPC3_308	2015_Apr_15_1301	LL-George	AO	cueing_effect	341	1	frame	right	200	0	0					1337.23878022		nogo	1
SPC3_308	2015_Apr_15_1301	LL-George	AO	cueing_effect	342	0					1	right	176.753708087	7.83897776068	1.0	379.402062856	 	go	1
SPC3_308	2015_Apr_15_1301	LL-George	AO	cueing_effect	343	1	frame	left	-200	0	1	left	-209.203685369	-23.2504863833	1.0	488.723538816	 	go	1
SPC3_308	2015_Apr_15_1301	LL-George	AO	cueing_effect	344	1	frame	right	200	0	1	right	218.702086495	8.53266151961	1.0	432.742608245	 	go	1
SPC3_308	2015_Apr_15_1301	LL-George	AO	cueing_effect	345	0					1	left	-182.282218943	6.56299719979	1.0	335.54820111	 	go	1
SPC3_308	2015_Apr_15_1301	LL-George	AO	cueing_effect	346	1	frame	left	-200	0	0					1330.5974789		nogo	1
SPC3_308	2015_Apr_15_1301	LL-George	AO	cueing_effect	347	1	frame	right	200	0	1	right	196.842427123	-7.00552505835	1.0	421.598716639	 	go	1
SPC3_308	2015_Apr_15_1301	LL-George	AO	cueing_effect	348	1	frame	right	200	0	1	right	192.266647939	-8.05607986973	1.0	473.606967833	 	go	1
SPC3_308	2015_Apr_15_1301	LL-George	AO	cueing_effect	349	0					0					1329.77015804		nogo	1
SPC3_308	2015_Apr_15_1301	LL-George	AO	cueing_effect	350	1	sound	right			1	right	218.022904097	-11.9272260603	1.0	825.067889411	 	go	1
SPC3_308	2015_Apr_15_1301	LL-George	AO	cueing_effect	351	1	sound	right			0					1329.1628696		nogo	1
SPC3_308	2015_Apr_15_1301	LL-George	AO	cueing_effect	352	0					1	left	-207.340665629	8.29998597879	1.0	1328.74554163		nogo	0
SPC3_308	2015_Apr_15_1301	LL-George	AO	cueing_effect	353	0					1	left	-182.027338374	-1.48424594961	1.0	435.929039493	 	go	1
SPC3_308	2015_Apr_15_1301	LL-George	AO	cueing_effect	354	0					1	right	180.732677544	-17.0841456913	1.0	445.873023011	 	go	1
SPC3_308	2015_Apr_15_1301	LL-George	AO	cueing_effect	355	1	sound	right			1	right	216.484453563	18.8925821068	1.0	412.560898345	 	go	1
SPC3_308	2015_Apr_15_1301	LL-George	AO	cueing_effect	356	1	sound	right			1	right	201.242284905	-10.5723678664	1.0	335.882282816	 	go	1
SPC3_308	2015_Apr_15_1301	LL-George	AO	cueing_effect	357	1	sound	left			1	left	-193.404438728	-0.958888730085	1.0	327.233921736	 	go	1
SPC3_308	2015_Apr_15_1301	LL-George	AO	cueing_effect	358	1	frame	left	-200	0	1	left	-206.583928504	4.18060017546	1.0	378.06280097	 	go	1
SPC3_308	2015_Apr_15_1301	LL-George	AO	cueing_effect	359	0					1	left	-185.682773366	19.6577350556	1.0	360.66523008	 	go	1
