subj_id	date	computer	experimenter	part	trial_ix	cue_present	cue_type	cue_loc	cue_pos_x	cue_pos_y	target_present	target_loc	target_pos_x	target_pos_y	target_opacity	rt	key	response	is_correct
SPC1_103a	2015_Apr_09_1559	LL-Elaine	PME	practice	0	0					0					462.062702747	u	absent	1
SPC1_103a	2015_Apr_09_1559	LL-Elaine	PME	practice	1	0					1	right	206.622288998	18.8257869727	1.0	655.856272206	u	absent	0
SPC1_103a	2015_Apr_09_1559	LL-Elaine	PME	practice	2	0					1	right	187.732958484	-13.6383909981	1.0	569.871118991	y	present	1
SPC1_103a	2015_Apr_09_1559	LL-Elaine	PME	practice	3	0					0					620.670026401	u	absent	1
SPC1_103a	2015_Apr_09_1559	LL-Elaine	PME	practice	4	0					1	right	187.968231909	-18.751697325	1.0	473.933921428	u	absent	0
SPC1_103a	2015_Apr_09_1559	LL-Elaine	PME	practice	5	0					1	left	-183.297127192	7.60140552602	1.0	461.584914709	u	absent	0
SPC1_103a	2015_Apr_09_1559	LL-Elaine	PME	practice	6	0					1	right	212.41983224	20.2630412276	1.0	617.422094569	y	present	1
SPC1_103a	2015_Apr_09_1559	LL-Elaine	PME	practice	7	0					1	left	-220.24912423	-22.8795220216	1.0	863.75886621	u	absent	0
SPC1_103a	2015_Apr_09_1559	LL-Elaine	PME	practice	8	0					1	left	-211.249651372	-1.07563497062	1.0	514.270266285	u	absent	0
SPC1_103a	2015_Apr_09_1559	LL-Elaine	PME	practice	9	0					0					537.03113622	u	absent	1
SPC1_103a	2015_Apr_09_1559	LL-Elaine	PME	practice	10	0					0					494.928676868	u	absent	1
SPC1_103a	2015_Apr_09_1559	LL-Elaine	PME	practice	11	0					0					646.941627376	u	absent	1
SPC1_103a	2015_Apr_09_1559	LL-Elaine	PME	practice	12	0					0					567.091991194	u	absent	1
SPC1_103a	2015_Apr_09_1559	LL-Elaine	PME	practice	13	0					1	right	204.272974582	-12.3118712911	1.0	445.024378831	u	absent	0
SPC1_103a	2015_Apr_09_1559	LL-Elaine	PME	practice	14	0					1	right	183.390066808	21.2766576934	1.0	411.485843593	y	present	1
SPC1_103a	2015_Apr_09_1559	LL-Elaine	PME	practice	15	0					1	right	194.007264416	-14.922829078	1.0	598.894894589	u	absent	0
SPC1_103a	2015_Apr_09_1559	LL-Elaine	PME	practice	16	0					1	left	-216.736596446	-20.7608024895	1.0	483.137998497	u	absent	0
SPC1_103a	2015_Apr_09_1559	LL-Elaine	PME	practice	17	0					0					620.424554218	u	absent	1
SPC1_103a	2015_Apr_09_1559	LL-Elaine	PME	practice	18	0					1	left	-216.947854078	1.03501566344	1.0	570.256815059	y	present	1
SPC1_103a	2015_Apr_09_1559	LL-Elaine	PME	practice	19	0					1	right	183.468881347	-13.1304393565	1.0	561.924243812	y	present	1
SPC1_103a	2015_Apr_09_1559	LL-Elaine	PME	calibration	0	0					1	left	-209.299764256	8.62699459477	0.8	1065.08441502	u	absent	0
SPC1_103a	2015_Apr_09_1559	LL-Elaine	PME	calibration	1	0					1	left	-179.232536035	13.5464258284	1.0	873.191408813	y	present	1
SPC1_103a	2015_Apr_09_1559	LL-Elaine	PME	calibration	2	0					1	left	-192.091725571	-4.40503792325	1.0	520.453593927	y	present	1
SPC1_103a	2015_Apr_09_1559	LL-Elaine	PME	calibration	3	0					1	left	-195.90271428	18.5785579297	0.922040690101	362.863776041	y	present	1
SPC1_103a	2015_Apr_09_1559	LL-Elaine	PME	calibration	4	0					1	right	204.879961027	-20.8098523948	0.860906834362	404.147674795	y	present	1
SPC1_103a	2015_Apr_09_1559	LL-Elaine	PME	calibration	5	0					1	left	-210.730241631	4.49443593989	0.81343164617	370.655345963	u	absent	0
SPC1_103a	2015_Apr_09_1559	LL-Elaine	PME	calibration	6	0					1	left	-223.194258936	0.469405509397	0.893740625814	512.291088235	y	present	1
SPC1_103a	2015_Apr_09_1559	LL-Elaine	PME	calibration	7	0					1	right	183.969676171	9.48772144817	0.849066950941	412.025240483	u	absent	0
SPC1_103a	2015_Apr_09_1559	LL-Elaine	PME	calibration	8	0					0					469.349852297	u	absent	1
SPC1_103a	2015_Apr_09_1559	LL-Elaine	PME	calibration	9	0					0					461.942373542	y	present	0
SPC1_103a	2015_Apr_09_1559	LL-Elaine	PME	calibration	10	0					1	right	222.163777602	-15.7350471697	0.924750938442	428.865261609	u	absent	0
SPC1_103a	2015_Apr_09_1559	LL-Elaine	PME	calibration	11	0					0					478.678430198	y	present	0
SPC1_103a	2015_Apr_09_1559	LL-Elaine	PME	calibration	12	0					1	left	-180.298530323	10.5921899413	1.0	425.947193056	u	absent	0
SPC1_103a	2015_Apr_09_1559	LL-Elaine	PME	calibration	13	0					1	right	205.096905856	1.09527235398	1.0	553.200521739	y	present	1
SPC1_103a	2015_Apr_09_1559	LL-Elaine	PME	calibration	14	0					1	right	213.940691754	8.9839453235	1.0	537.363566691	u	absent	0
SPC1_103a	2015_Apr_09_1559	LL-Elaine	PME	calibration	15	0					0					541.204802226	u	absent	1
SPC1_103a	2015_Apr_09_1559	LL-Elaine	PME	calibration	16	0					1	right	202.919066886	-16.3335347639	1.0	678.061380982	u	absent	0
SPC1_103a	2015_Apr_09_1559	LL-Elaine	PME	calibration	17	0					1	right	196.873291068	11.1717332342	1.0	869.666238315	u	absent	0
SPC1_103a	2015_Apr_09_1559	LL-Elaine	PME	calibration	18	0					1	left	-207.773155111	10.438280209	1.0	545.801706845	u	absent	0
SPC1_103a	2015_Apr_09_1559	LL-Elaine	PME	calibration	19	0					1	left	-183.559426263	-22.5923805875	1.0	538.331335876	u	absent	0
SPC1_103a	2015_Apr_09_1559	LL-Elaine	PME	calibration	20	0					1	left	-187.715599485	-23.4909137084	1.0	478.817370255	y	present	1
SPC1_103a	2015_Apr_09_1559	LL-Elaine	PME	calibration	21	0					0					620.588844176	y	present	0
SPC1_103a	2015_Apr_09_1559	LL-Elaine	PME	calibration	22	0					1	left	-219.026016612	-5.86494869896	1.0	386.844625697	u	absent	0
SPC1_103a	2015_Apr_09_1559	LL-Elaine	PME	calibration	23	0					1	left	-221.265056243	-21.2150722631	1.0	483.371597948	u	absent	0
SPC1_103a	2015_Apr_09_1559	LL-Elaine	PME	calibration	24	0					1	right	204.832671405	-12.2470179779	1.0	353.570815409	u	absent	0
SPC1_103a	2015_Apr_09_1559	LL-Elaine	PME	calibration	25	0					0					312.179422239	u	absent	1
SPC1_103a	2015_Apr_09_1559	LL-Elaine	PME	calibration	26	0					0					395.376462489	u	absent	1
SPC1_103a	2015_Apr_09_1559	LL-Elaine	PME	calibration	27	0					1	right	220.919356165	21.7455928927	1.0	396.515260218	u	absent	0
SPC1_103a	2015_Apr_09_1559	LL-Elaine	PME	calibration	28	0					1	right	221.106898351	-5.37253905008	1.0	321.587578161	u	absent	0
SPC1_103a	2015_Apr_09_1559	LL-Elaine	PME	calibration	29	0					1	right	200.928650809	9.45300802675	1.0	453.487868421	u	absent	0
SPC1_103a	2015_Apr_09_1559	LL-Elaine	PME	calibration	30	0					1	left	-185.808122928	-4.76590423068	1.0	444.963732734	u	absent	0
SPC1_103a	2015_Apr_09_1559	LL-Elaine	PME	calibration	31	0					1	right	180.420973413	14.1519980737	1.0	528.237462975	u	absent	0
SPC1_103a	2015_Apr_09_1559	LL-Elaine	PME	calibration	32	0					1	right	195.357249756	-22.9519100114	1.0	853.854632471	u	absent	0
SPC1_103a	2015_Apr_09_1559	LL-Elaine	PME	calibration	33	0					1	right	199.483682391	4.0813740348	1.0	869.987758342	y	present	1
SPC1_103a	2015_Apr_09_1559	LL-Elaine	PME	calibration	34	0					1	right	190.501079845	4.15589371604	1.0	537.072529783	y	present	1
SPC1_103a	2015_Apr_09_1559	LL-Elaine	PME	calibration	35	0					1	right	188.362867544	-10.6719663538	1.0	386.652740417	y	present	1
SPC1_103a	2015_Apr_09_1559	LL-Elaine	PME	calibration	36	0					1	left	-200.086547432	-6.21544024168	1.0	503.387995064	y	present	1
SPC1_103a	2015_Apr_09_1559	LL-Elaine	PME	calibration	37	0					1	right	211.094594115	6.17512826315	1.0	503.594319802	u	absent	0
SPC1_103a	2015_Apr_09_1559	LL-Elaine	PME	calibration	38	0					1	left	-178.974657648	-6.42935232206	1.0	522.458121413	u	absent	0
SPC1_103a	2015_Apr_09_1559	LL-Elaine	PME	calibration	39	0					1	left	-191.66353451	1.40127662915	1.0	344.952020561	u	absent	0
SPC1_103a	2015_Apr_09_1559	LL-Elaine	PME	calibration	40	0					1	left	-195.02709043	-15.4397389644	1.0	1030.76774976	y	present	1
SPC1_103a	2015_Apr_09_1559	LL-Elaine	PME	calibration	41	0					1	left	-200.040792904	-8.90732287391	1.0	1030.41317919	u	absent	0
SPC1_103a	2015_Apr_09_1559	LL-Elaine	PME	calibration	42	0					0					415.484951576	u	absent	1
SPC1_103a	2015_Apr_09_1559	LL-Elaine	PME	calibration	43	0					1	left	-196.116069209	11.3023548459	1.0	516.118205152	u	absent	0
SPC1_103a	2015_Apr_09_1559	LL-Elaine	PME	calibration	44	0					1	left	-191.86363536	-16.553195243	1.0	389.028524514	u	absent	0
SPC1_103a	2015_Apr_09_1559	LL-Elaine	PME	calibration	45	0					1	left	-220.395911224	-13.4833473267	1.0	545.551742427	y	present	1
SPC1_103a	2015_Apr_09_1559	LL-Elaine	PME	calibration	46	0					0					367.764552124	y	present	0
SPC1_103a	2015_Apr_09_1559	LL-Elaine	PME	calibration	47	0					1	right	209.461222048	-18.6638532257	1.0	517.896513455	u	absent	0
SPC1_103a	2015_Apr_09_1559	LL-Elaine	PME	calibration	48	0					1	left	-186.735439167	11.0474402544	1.0	587.226150325	y	present	1
SPC1_103a	2015_Apr_09_1559	LL-Elaine	PME	calibration	49	0					1	right	206.741096125	-14.5598168125	1.0	686.546369223	u	absent	0
SPC1_103a	2015_Apr_09_1559	LL-Elaine	PME	calibration	50	0					0					953.263093019	y	present	0
SPC1_103a	2015_Apr_09_1559	LL-Elaine	PME	calibration	51	0					1	left	-208.040477367	9.13970187688	1.0	432.051263517	u	absent	0
SPC1_103a	2015_Apr_09_1559	LL-Elaine	PME	calibration	52	0					1	left	-177.59109909	-17.2174308889	1.0	512.24873215	y	present	1
SPC1_103a	2015_Apr_09_1559	LL-Elaine	PME	calibration	53	0					1	left	-221.37790829	4.41276222412	1.0	513.131468557	u	absent	0
SPC1_103a	2015_Apr_09_1559	LL-Elaine	PME	calibration	54	0					1	right	192.868558386	3.48478429435	1.0	595.340203261	u	absent	0
SPC1_103a	2015_Apr_09_1559	LL-Elaine	PME	calibration	55	0					1	right	220.549694823	-21.1915620599	1.0	497.235792689	u	absent	0
SPC1_103a	2015_Apr_09_1559	LL-Elaine	PME	calibration	56	0					0					745.479865698	u	absent	1
SPC1_103a	2015_Apr_09_1559	LL-Elaine	PME	calibration	57	0					1	left	-212.887696796	21.7214782244	1.0	611.333426321	y	present	1
SPC1_103a	2015_Apr_09_1559	LL-Elaine	PME	calibration	58	0					1	left	-201.01915905	16.5462912557	1.0	536.513880594	y	present	1
SPC1_103a	2015_Apr_09_1559	LL-Elaine	PME	calibration	59	0					0					412.50591632	u	absent	1
SPC1_103a	2015_Apr_09_1559	LL-Elaine	PME	calibration	60	0					1	left	-216.17641542	3.72540920736	1.0	428.091623588	u	absent	0
SPC1_103a	2015_Apr_09_1559	LL-Elaine	PME	calibration	61	0					0					461.664171889	u	absent	1
SPC1_103a	2015_Apr_09_1559	LL-Elaine	PME	calibration	62	0					0					503.623519791	u	absent	1
SPC1_103a	2015_Apr_09_1559	LL-Elaine	PME	calibration	63	0					1	left	-207.257589332	-16.5238913199	1.0	461.567266379	y	present	1
SPC1_103a	2015_Apr_09_1559	LL-Elaine	PME	calibration	64	0					1	right	209.941492481	-15.5073563987	1.0	605.773886666	y	present	1
SPC1_103a	2015_Apr_09_1559	LL-Elaine	PME	calibration	65	0					1	left	-213.79868324	-0.826644988933	1.0	678.827959578	u	absent	0
SPC1_103a	2015_Apr_09_1559	LL-Elaine	PME	calibration	66	0					1	left	-196.485426399	-5.20422537198	1.0	637.43143226	y	present	1
SPC1_103a	2015_Apr_09_1559	LL-Elaine	PME	calibration	67	0					0					562.463961309	u	absent	1
SPC1_103a	2015_Apr_09_1559	LL-Elaine	PME	calibration	68	0					1	right	202.874376655	-7.85159310803	1.0	518.079093425	y	present	1
SPC1_103a	2015_Apr_09_1559	LL-Elaine	PME	calibration	69	0					1	right	184.276310844	-19.5432261733	1.0	653.541134205	u	absent	0
SPC1_103a	2015_Apr_09_1559	LL-Elaine	PME	calibration	70	0					0					578.910264885	u	absent	1
SPC1_103a	2015_Apr_09_1559	LL-Elaine	PME	calibration	71	0					1	left	-222.378292652	2.35045919527	1.0	463.38279685	y	present	1
SPC1_103a	2015_Apr_09_1559	LL-Elaine	PME	calibration	72	0					1	left	-217.493823419	-23.1078563336	1.0	1887.04533526	y	present	1
SPC1_103a	2015_Apr_09_1559	LL-Elaine	PME	calibration	73	0					1	right	196.145530472	20.0569635226	1.0	587.197592249	u	absent	0
SPC1_103a	2015_Apr_09_1559	LL-Elaine	PME	calibration	74	0					0					479.884291301	u	absent	1
SPC1_103a	2015_Apr_09_1559	LL-Elaine	PME	calibration	75	0					0					514.019981259	u	absent	1
SPC1_103a	2015_Apr_09_1559	LL-Elaine	PME	calibration	76	0					0					620.494826697	y	present	0
SPC1_103a	2015_Apr_09_1559	LL-Elaine	PME	calibration	77	0					1	left	-201.923886205	-10.6805228057	1.0	420.021530939	u	absent	0
SPC1_103a	2015_Apr_09_1559	LL-Elaine	PME	calibration	78	0					1	right	179.316235323	14.5261477035	1.0	479.102310259	y	present	1
SPC1_103a	2015_Apr_09_1559	LL-Elaine	PME	calibration	79	0					1	left	-207.14567003	15.462689407	1.0	445.180004695	u	absent	0
SPC1_103a	2015_Apr_09_1559	LL-Elaine	PME	calibration	80	0					1	left	-212.781129169	0.216613417208	1.0	795.052054338	y	present	1
SPC1_103a	2015_Apr_09_1559	LL-Elaine	PME	calibration	81	0					1	right	179.107162284	12.508639271	1.0	1879.26114514	u	absent	0
SPC1_103a	2015_Apr_09_1559	LL-Elaine	PME	calibration	82	0					1	right	185.178224175	-19.4133083975	1.0	728.537484072	y	present	1
SPC1_103a	2015_Apr_09_1559	LL-Elaine	PME	calibration	83	0					1	right	214.364100472	6.30817393171	1.0	711.416052422	y	present	1
SPC1_103a	2015_Apr_09_1559	LL-Elaine	PME	calibration	84	0					0					409.189958591	u	absent	1
SPC1_103a	2015_Apr_09_1559	LL-Elaine	PME	calibration	85	0					1	left	-209.662183126	3.22878667928	1.0	559.125863016	u	absent	0
SPC1_103a	2015_Apr_09_1559	LL-Elaine	PME	calibration	86	0					1	right	203.791189017	5.61508379109	1.0	436.199259246	u	absent	0
SPC1_103a	2015_Apr_09_1559	LL-Elaine	PME	calibration	87	0					1	right	185.885800514	-12.7357427476	1.0	394.981782185	u	absent	0
SPC1_103a	2015_Apr_09_1559	LL-Elaine	PME	calibration	88	0					1	left	-180.644054417	-18.293462148	1.0	590.47921584	u	absent	0
SPC1_103a	2015_Apr_09_1559	LL-Elaine	PME	calibration	89	0					1	right	219.805064659	11.5173119278	1.0	420.626065927	u	absent	0
SPC1_103a	2015_Apr_09_1559	LL-Elaine	PME	calibration	90	0					1	right	207.114344863	15.3424562631	1.0	453.729489818	u	absent	0
SPC1_103a	2015_Apr_09_1559	LL-Elaine	PME	calibration	91	0					1	left	-184.071102847	15.6558645596	1.0	528.980296338	u	absent	0
SPC1_103a	2015_Apr_09_1559	LL-Elaine	PME	calibration	92	0					0					497.114500497	u	absent	1
SPC1_103a	2015_Apr_09_1559	LL-Elaine	PME	calibration	93	0					1	right	215.771970583	7.44938460501	1.0	595.037294086	y	present	1
SPC1_103a	2015_Apr_09_1559	LL-Elaine	PME	calibration	94	0					1	left	-200.384078088	8.55427987509	1.0	2061.84354285		timeout	0
SPC1_103a	2015_Apr_09_1559	LL-Elaine	PME	calibration	95	0					1	left	-184.266849451	-9.99625430289	1.0	404.136443976	u	absent	0
SPC1_103a	2015_Apr_09_1559	LL-Elaine	PME	calibration	96	0					0					412.459709682	u	absent	1
SPC1_103a	2015_Apr_09_1559	LL-Elaine	PME	calibration	97	0					1	left	-192.223383828	-0.327821252809	1.0	350.555199897	u	absent	0
SPC1_103a	2015_Apr_09_1559	LL-Elaine	PME	calibration	98	0					0					376.662511146	u	absent	1
SPC1_103a	2015_Apr_09_1559	LL-Elaine	PME	calibration	99	0					1	left	-221.302961382	14.2295157539	1.0	415.945733199	y	present	1
SPC1_103a	2015_Apr_09_1559	LL-Elaine	PME	calibration	100	0					1	left	-223.175070204	-15.8187935494	1.0	336.513880407	u	absent	0
SPC1_103a	2015_Apr_09_1559	LL-Elaine	PME	calibration	101	0					0					412.445591064	u	absent	1
SPC1_103a	2015_Apr_09_1559	LL-Elaine	PME	calibration	102	0					1	right	211.587139965	5.56410431042	1.0	390.440068673	u	absent	0
SPC1_103a	2015_Apr_09_1559	LL-Elaine	PME	calibration	103	0					1	left	-184.896292012	-22.0169963448	1.0	361.012307229	u	absent	0
SPC1_103a	2015_Apr_09_1559	LL-Elaine	PME	calibration	104	0					0					353.893939871	u	absent	1
SPC1_103a	2015_Apr_09_1559	LL-Elaine	PME	calibration	105	0					1	right	221.694003592	-5.52755032609	1.0	436.958136735	u	absent	0
SPC1_103a	2015_Apr_09_1559	LL-Elaine	PME	calibration	106	0					0					415.412112372	u	absent	1
SPC1_103a	2015_Apr_09_1559	LL-Elaine	PME	calibration	107	0					1	right	197.159029276	0.0923810255207	1.0	420.223684283	u	absent	0
SPC1_103a	2015_Apr_09_1559	LL-Elaine	PME	calibration	108	0					1	right	210.336381724	5.75645574351	1.0	428.171522217	u	absent	0
SPC1_103a	2015_Apr_09_1559	LL-Elaine	PME	calibration	109	0					0					494.979375508	u	absent	1
SPC1_103a	2015_Apr_09_1559	LL-Elaine	PME	calibration	110	0					0					453.912390629	u	absent	1
SPC1_103a	2015_Apr_09_1559	LL-Elaine	PME	calibration	111	0					1	left	-207.259771831	2.88793166757	1.0	497.328847647	u	absent	0
SPC1_103a	2015_Apr_09_1559	LL-Elaine	PME	calibration	112	0					0					645.288140979	u	absent	1
SPC1_103a	2015_Apr_09_1559	LL-Elaine	PME	calibration	113	0					1	right	185.207661407	22.8358175536	1.0	553.669325076	u	absent	0
SPC1_103a	2015_Apr_09_1559	LL-Elaine	PME	calibration	114	0					1	right	180.604620551	-22.0002286887	1.0	572.070740862	u	absent	0
SPC1_103a	2015_Apr_09_1559	LL-Elaine	PME	calibration	115	0					1	right	197.378784589	9.77611018552	1.0	494.537846884	u	absent	0
SPC1_103a	2015_Apr_09_1559	LL-Elaine	PME	calibration	116	0					1	right	213.647580883	-18.1403710469	1.0	520.332301734	u	absent	0
SPC1_103a	2015_Apr_09_1559	LL-Elaine	PME	calibration	117	0					1	left	-205.738832601	-5.86967527878	1.0	403.932365123	u	absent	0
SPC1_103a	2015_Apr_09_1559	LL-Elaine	PME	calibration	118	0					1	right	203.396594924	-23.5848426239	1.0	403.811394237	u	absent	0
SPC1_103a	2015_Apr_09_1559	LL-Elaine	PME	calibration	119	0					1	left	-196.075465008	12.3342397739	1.0	444.950255798	y	present	1
SPC1_103a	2015_Apr_09_1559	LL-Elaine	PME	cueing_effect	0	0					1	left	-220.919701279	1.29373930491	1.4771661916	795.401812065	u	absent	0
