subj_id,sona_experiment_code,experimenter,cue_contrast,block,trial,mask_type,cue_type,cue_validity,cue_dir,target_loc,rt,response_type,is_correct
SPC228,SPC,NS,visual_auditory,0,0,mask,auditory_word,invalid,left,up,1450.02064575,left,0
SPC228,SPC,NS,visual_auditory,0,1,mask,auditory_word,invalid,right,up,666.831618175,right,0
SPC228,SPC,NS,visual_auditory,0,2,mask,auditory_word,valid,right,right,666.249059606,down,0
SPC228,SPC,NS,visual_auditory,0,3,mask,visual_word,valid,left,left,2116.63364433,timeout,0
SPC228,SPC,NS,visual_auditory,0,4,mask,auditory_word,neutral,neutral,right,2116.62340164,timeout,0
SPC228,SPC,NS,visual_auditory,0,5,mask,auditory_word,valid,right,right,2116.61379901,timeout,0
SPC228,SPC,NS,visual_auditory,0,6,mask,visual_word,valid,right,right,636.352607748,right,1
SPC228,SPC,NS,visual_auditory,0,7,mask,visual_word,valid,right,right,789.747931296,right,1
SPC228,SPC,NS,visual_auditory,0,8,mask,visual_word,valid,right,right,687.202599132,right,1
SPC228,SPC,NS,visual_auditory,0,9,mask,auditory_word,invalid,right,up,727.321351413,up,1
SPC228,SPC,NS,visual_auditory,0,10,mask,auditory_word,valid,left,left,821.699662367,left,1
SPC228,SPC,NS,visual_auditory,0,11,mask,auditory_word,valid,left,left,671.450794442,right,0
SPC228,SPC,NS,visual_auditory,0,12,mask,visual_word,valid,right,right,703.544324031,right,1
SPC228,SPC,NS,visual_auditory,0,13,mask,auditory_word,valid,right,right,566.635404946,right,1
SPC228,SPC,NS,visual_auditory,0,14,mask,visual_word,valid,left,left,723.075396614,left,1
SPC228,SPC,NS,visual_auditory,1,15,mask,visual_word,valid,left,left,714.300529798,left,1
SPC228,SPC,NS,visual_auditory,1,16,mask,visual_word,valid,left,left,543.713330058,left,1
SPC228,SPC,NS,visual_auditory,1,17,mask,visual_word,invalid,right,up,587.133460212,up,1
SPC228,SPC,NS,visual_auditory,1,18,mask,visual_word,valid,right,right,613.247763366,right,1
SPC228,SPC,NS,visual_auditory,1,19,mask,auditory_word,valid,right,right,647.279100027,right,1
SPC228,SPC,NS,visual_auditory,1,20,mask,auditory_word,invalid,right,left,545.372341294,left,1
SPC228,SPC,NS,visual_auditory,1,21,mask,visual_word,valid,right,right,556.466558948,right,1
SPC228,SPC,NS,visual_auditory,1,22,mask,auditory_word,invalid,right,up,591.216170695,up,1
SPC228,SPC,NS,visual_auditory,1,23,mask,auditory_word,valid,right,right,465.945937438,right,1
SPC228,SPC,NS,visual_auditory,1,24,mask,auditory_word,invalid,right,left,459.062144859,left,1
SPC228,SPC,NS,visual_auditory,1,25,mask,visual_word,valid,right,right,1148.44997833,right,1
SPC228,SPC,NS,visual_auditory,1,26,mask,auditory_word,valid,right,right,464.923899388,right,1
SPC228,SPC,NS,visual_auditory,1,27,mask,auditory_word,valid,left,left,464.960709214,left,1
SPC228,SPC,NS,visual_auditory,1,28,mask,visual_word,valid,left,left,479.385112645,left,1
SPC228,SPC,NS,visual_auditory,1,29,mask,auditory_word,invalid,left,up,503.188387258,up,1
SPC228,SPC,NS,visual_auditory,1,30,mask,auditory_word,invalid,right,left,515.907686902,left,1
SPC228,SPC,NS,visual_auditory,1,31,mask,auditory_word,valid,left,left,424.339100253,left,1
SPC228,SPC,NS,visual_auditory,1,32,mask,visual_word,invalid,left,down,951.372053241,right,0
SPC228,SPC,NS,visual_auditory,1,33,mask,auditory_word,invalid,right,left,444.801626028,left,1
SPC228,SPC,NS,visual_auditory,1,34,mask,visual_word,invalid,right,left,404.234751826,left,1
SPC228,SPC,NS,visual_auditory,1,35,mask,auditory_word,invalid,left,down,724.956548307,right,0
SPC228,SPC,NS,visual_auditory,1,36,mask,auditory_word,invalid,left,right,474.721764214,right,1
SPC228,SPC,NS,visual_auditory,1,37,mask,visual_word,valid,right,right,519.788102247,right,1
SPC228,SPC,NS,visual_auditory,1,38,mask,visual_word,invalid,right,left,718.195989262,left,1
SPC228,SPC,NS,visual_auditory,1,39,mask,visual_word,valid,left,left,531.651489204,left,1
SPC228,SPC,NS,visual_auditory,1,40,mask,visual_word,valid,right,right,512.409775518,right,1
SPC228,SPC,NS,visual_auditory,1,41,mask,auditory_word,valid,left,left,412.125538103,left,1
SPC228,SPC,NS,visual_auditory,1,42,mask,visual_word,valid,left,left,454.249636037,left,1
SPC228,SPC,NS,visual_auditory,1,43,mask,auditory_word,neutral,neutral,left,580.983627355,left,1
SPC228,SPC,NS,visual_auditory,1,44,mask,visual_word,invalid,right,down,608.719171491,down,1
SPC228,SPC,NS,visual_auditory,1,45,mask,visual_word,valid,right,right,475.146199809,right,1
SPC228,SPC,NS,visual_auditory,1,46,mask,auditory_word,valid,right,right,491.824016208,right,1
SPC228,SPC,NS,visual_auditory,1,47,mask,auditory_word,valid,right,right,411.945969332,right,1
SPC228,SPC,NS,visual_auditory,1,48,mask,visual_word,valid,right,right,371.362770675,right,1
SPC228,SPC,NS,visual_auditory,1,49,mask,auditory_word,valid,left,left,447.117456002,left,1
SPC228,SPC,NS,visual_auditory,1,50,mask,auditory_word,invalid,right,down,518.204311607,down,1
SPC228,SPC,NS,visual_auditory,1,51,mask,visual_word,invalid,left,up,516.922362847,up,1
SPC228,SPC,NS,visual_auditory,1,52,mask,visual_word,invalid,right,left,409.710161155,left,1
SPC228,SPC,NS,visual_auditory,1,53,mask,auditory_word,valid,left,left,458.764143754,left,1
SPC228,SPC,NS,visual_auditory,1,54,mask,visual_word,valid,left,left,626.189203467,left,1
SPC228,SPC,NS,visual_auditory,1,55,mask,auditory_word,valid,right,right,435.608725762,right,1
SPC228,SPC,NS,visual_auditory,1,56,mask,auditory_word,valid,right,right,485.361138126,right,1
SPC228,SPC,NS,visual_auditory,1,57,mask,auditory_word,valid,left,left,465.480210725,left,1
SPC228,SPC,NS,visual_auditory,1,58,mask,visual_word,valid,right,right,431.162076071,right,1
SPC228,SPC,NS,visual_auditory,1,59,mask,auditory_word,invalid,right,left,449.586607749,left,1
SPC228,SPC,NS,visual_auditory,1,60,mask,visual_word,valid,right,right,505.01256343,right,1
SPC228,SPC,NS,visual_auditory,1,61,mask,auditory_word,invalid,left,up,656.730310759,up,1
SPC228,SPC,NS,visual_auditory,1,62,mask,auditory_word,valid,right,right,442.496999167,right,1
SPC228,SPC,NS,visual_auditory,1,63,mask,visual_word,neutral,neutral,left,675.215018447,left,1
SPC228,SPC,NS,visual_auditory,1,64,mask,visual_word,valid,left,left,506.685338449,left,1
SPC228,SPC,NS,visual_auditory,1,65,mask,visual_word,valid,left,left,358.431893401,left,1
SPC228,SPC,NS,visual_auditory,1,66,mask,auditory_word,neutral,neutral,right,531.798409298,right,1
SPC228,SPC,NS,visual_auditory,1,67,mask,visual_word,valid,left,left,399.22314859,left,1
SPC228,SPC,NS,visual_auditory,1,68,mask,visual_word,valid,right,right,395.292159403,right,1
SPC228,SPC,NS,visual_auditory,1,69,mask,visual_word,valid,left,left,443.724212935,left,1
SPC228,SPC,NS,visual_auditory,1,70,mask,auditory_word,invalid,right,left,435.487732757,left,1
SPC228,SPC,NS,visual_auditory,1,71,mask,auditory_word,neutral,neutral,right,566.192724509,right,1
SPC228,SPC,NS,visual_auditory,1,72,mask,visual_word,invalid,left,down,423.623385606,down,1
SPC228,SPC,NS,visual_auditory,1,73,mask,auditory_word,valid,right,right,455.698349979,right,1
SPC228,SPC,NS,visual_auditory,1,74,mask,auditory_word,valid,right,right,521.447433624,right,1
SPC228,SPC,NS,visual_auditory,1,75,mask,auditory_word,valid,right,right,461.568746716,right,1
SPC228,SPC,NS,visual_auditory,1,76,mask,auditory_word,valid,right,right,580.602723872,right,1
SPC228,SPC,NS,visual_auditory,1,77,mask,visual_word,valid,right,right,473.33130613,right,1
SPC228,SPC,NS,visual_auditory,1,78,mask,visual_word,valid,right,right,449.103916297,right,1
SPC228,SPC,NS,visual_auditory,1,79,mask,auditory_word,invalid,left,right,515.183649957,right,1
SPC228,SPC,NS,visual_auditory,1,80,mask,visual_word,valid,right,right,479.916777229,right,1
SPC228,SPC,NS,visual_auditory,1,81,mask,auditory_word,valid,left,left,544.695037184,left,1
SPC228,SPC,NS,visual_auditory,1,82,mask,visual_word,invalid,right,left,411.104140338,left,1
SPC228,SPC,NS,visual_auditory,1,83,mask,visual_word,valid,right,right,532.15786675,right,1
SPC228,SPC,NS,visual_auditory,1,84,mask,auditory_word,invalid,left,right,465.933773899,right,1
SPC228,SPC,NS,visual_auditory,1,85,mask,auditory_word,valid,left,left,567.7089768,left,1
SPC228,SPC,NS,visual_auditory,1,86,mask,visual_word,valid,right,right,651.070531225,right,1
SPC228,SPC,NS,visual_auditory,1,87,mask,auditory_word,valid,right,right,483.833042672,right,1
SPC228,SPC,NS,visual_auditory,1,88,mask,auditory_word,valid,left,left,385.282076895,left,1
SPC228,SPC,NS,visual_auditory,1,89,mask,auditory_word,valid,right,right,427.03135265,right,1
SPC228,SPC,NS,visual_auditory,1,90,mask,visual_word,valid,right,right,595.408991212,right,1
SPC228,SPC,NS,visual_auditory,1,91,mask,auditory_word,valid,left,left,422.49251809,left,1
SPC228,SPC,NS,visual_auditory,1,92,mask,visual_word,valid,right,right,382.87886302,right,1
SPC228,SPC,NS,visual_auditory,1,93,mask,auditory_word,valid,right,right,426.29803298,right,1
SPC228,SPC,NS,visual_auditory,1,94,mask,auditory_word,valid,right,right,428.06427367,right,1
SPC228,SPC,NS,visual_auditory,1,95,mask,auditory_word,invalid,right,left,644.128162879,left,1
SPC228,SPC,NS,visual_auditory,1,96,mask,visual_word,neutral,neutral,left,571.901157033,left,1
SPC228,SPC,NS,visual_auditory,1,97,mask,auditory_word,valid,right,right,901.609397726,down,0
SPC228,SPC,NS,visual_auditory,1,98,mask,visual_word,neutral,neutral,right,453.749339795,right,1
SPC228,SPC,NS,visual_auditory,1,99,mask,visual_word,invalid,left,right,381.482323166,right,1
SPC228,SPC,NS,visual_auditory,1,100,mask,visual_word,invalid,right,up,871.194404783,up,1
SPC228,SPC,NS,visual_auditory,1,101,mask,visual_word,valid,left,left,444.635500899,left,1
SPC228,SPC,NS,visual_auditory,1,102,mask,visual_word,valid,left,left,444.085911382,left,1
SPC228,SPC,NS,visual_auditory,1,103,mask,auditory_word,neutral,neutral,right,478.166861227,right,1
SPC228,SPC,NS,visual_auditory,1,104,mask,auditory_word,valid,left,left,412.890546257,left,1
SPC228,SPC,NS,visual_auditory,1,105,mask,visual_word,invalid,left,right,381.288990611,right,1
SPC228,SPC,NS,visual_auditory,1,106,mask,visual_word,valid,left,left,424.717443064,left,1
SPC228,SPC,NS,visual_auditory,1,107,mask,visual_word,valid,right,right,1026.12454584,down,0
SPC228,SPC,NS,visual_auditory,1,108,mask,visual_word,invalid,right,down,628.922106931,down,1
SPC228,SPC,NS,visual_auditory,1,109,mask,visual_word,valid,left,left,446.303154342,left,1
SPC228,SPC,NS,visual_auditory,1,110,mask,auditory_word,invalid,right,left,519.38479254,left,1
SPC228,SPC,NS,visual_auditory,1,111,mask,auditory_word,valid,right,right,387.789638713,right,1
SPC228,SPC,NS,visual_auditory,1,112,mask,visual_word,valid,right,right,575.558151817,right,1
SPC228,SPC,NS,visual_auditory,1,113,mask,visual_word,invalid,left,right,568.666677224,right,1
SPC228,SPC,NS,visual_auditory,1,114,mask,auditory_word,valid,left,left,460.747083183,left,1
SPC228,SPC,NS,visual_auditory,1,115,mask,visual_word,valid,right,right,499.465774512,right,1
SPC228,SPC,NS,visual_auditory,2,116,mask,auditory_word,neutral,neutral,right,591.453355271,up,0
SPC228,SPC,NS,visual_auditory,2,117,mask,auditory_word,invalid,left,down,616.850343067,down,1
SPC228,SPC,NS,visual_auditory,2,118,mask,visual_word,valid,right,right,419.633180136,right,1
SPC228,SPC,NS,visual_auditory,2,119,mask,auditory_word,valid,left,left,797.715858556,down,0
SPC228,SPC,NS,visual_auditory,2,120,mask,auditory_word,valid,left,left,384.44248843,left,1
SPC228,SPC,NS,visual_auditory,2,121,mask,visual_word,invalid,left,up,589.188739192,up,1
SPC228,SPC,NS,visual_auditory,2,122,mask,visual_word,valid,left,left,560.259910533,left,1
SPC228,SPC,NS,visual_auditory,2,123,mask,auditory_word,invalid,left,right,466.688219225,right,1
SPC228,SPC,NS,visual_auditory,2,124,mask,auditory_word,valid,right,right,514.758574311,right,1
SPC228,SPC,NS,visual_auditory,2,125,mask,visual_word,neutral,neutral,right,463.205992011,right,1
SPC228,SPC,NS,visual_auditory,2,126,mask,visual_word,valid,left,left,559.585807379,left,1
SPC228,SPC,NS,visual_auditory,2,127,mask,visual_word,invalid,right,up,473.344429629,up,1
SPC228,SPC,NS,visual_auditory,2,128,mask,auditory_word,valid,right,right,425.412992248,right,1
SPC228,SPC,NS,visual_auditory,2,129,mask,visual_word,valid,left,left,427.528447704,left,1
SPC228,SPC,NS,visual_auditory,2,130,mask,visual_word,neutral,neutral,right,419.920938555,right,1
SPC228,SPC,NS,visual_auditory,2,131,mask,visual_word,valid,right,right,509.988317033,right,1
SPC228,SPC,NS,visual_auditory,2,132,mask,auditory_word,invalid,left,right,453.083878849,right,1
SPC228,SPC,NS,visual_auditory,2,133,mask,auditory_word,valid,right,right,486.139589921,right,1
SPC228,SPC,NS,visual_auditory,2,134,mask,visual_word,valid,right,right,484.241793863,right,1
SPC228,SPC,NS,visual_auditory,2,135,mask,auditory_word,valid,left,left,419.972152449,left,1
SPC228,SPC,NS,visual_auditory,2,136,mask,auditory_word,invalid,right,left,468.366755871,left,1
SPC228,SPC,NS,visual_auditory,2,137,mask,auditory_word,valid,right,right,477.13169991,right,1
SPC228,SPC,NS,visual_auditory,2,138,mask,visual_word,valid,left,left,498.875534162,left,1
SPC228,SPC,NS,visual_auditory,2,139,mask,visual_word,invalid,left,right,432.656242512,right,1
SPC228,SPC,NS,visual_auditory,2,140,mask,visual_word,neutral,neutral,left,395.384024363,left,1
SPC228,SPC,NS,visual_auditory,2,141,mask,auditory_word,valid,left,left,437.45882879,left,1
SPC228,SPC,NS,visual_auditory,2,142,mask,visual_word,invalid,right,up,493.524318794,up,1
SPC228,SPC,NS,visual_auditory,2,143,mask,visual_word,valid,left,left,508.937471081,left,1
SPC228,SPC,NS,visual_auditory,2,144,mask,auditory_word,invalid,right,down,521.73231123,down,1
SPC228,SPC,NS,visual_auditory,2,145,mask,visual_word,valid,right,right,479.800585657,right,1
SPC228,SPC,NS,visual_auditory,2,146,mask,auditory_word,valid,left,left,496.161515824,left,1
SPC228,SPC,NS,visual_auditory,2,147,mask,visual_word,invalid,right,left,518.240801524,left,1
SPC228,SPC,NS,visual_auditory,2,148,mask,visual_word,valid,left,left,387.665444985,left,1
SPC228,SPC,NS,visual_auditory,2,149,mask,visual_word,valid,left,left,438.102843938,left,1
SPC228,SPC,NS,visual_auditory,2,150,mask,visual_word,invalid,left,down,469.21626688,down,1
SPC228,SPC,NS,visual_auditory,2,151,mask,auditory_word,valid,right,right,1164.53755437,right,1
SPC228,SPC,NS,visual_auditory,2,152,mask,auditory_word,valid,right,right,440.681145294,right,1
SPC228,SPC,NS,visual_auditory,2,153,mask,auditory_word,neutral,neutral,right,665.434758412,right,1
SPC228,SPC,NS,visual_auditory,2,154,mask,visual_word,valid,left,left,441.515612183,left,1
SPC228,SPC,NS,visual_auditory,2,155,mask,visual_word,valid,left,left,463.916905457,left,1
SPC228,SPC,NS,visual_auditory,2,156,mask,visual_word,valid,left,left,1014.02781578,left,1
SPC228,SPC,NS,visual_auditory,2,157,mask,visual_word,valid,right,right,513.466702774,right,1
SPC228,SPC,NS,visual_auditory,2,158,mask,auditory_word,valid,left,left,456.220411928,left,1
SPC228,SPC,NS,visual_auditory,2,159,mask,auditory_word,invalid,left,right,568.288654555,right,1
SPC228,SPC,NS,visual_auditory,2,160,mask,visual_word,valid,left,left,429.008210311,left,1
SPC228,SPC,NS,visual_auditory,2,161,mask,visual_word,invalid,left,down,556.433269754,down,1
SPC228,SPC,NS,visual_auditory,2,162,mask,auditory_word,invalid,right,up,617.857017089,up,1
SPC228,SPC,NS,visual_auditory,2,163,mask,auditory_word,valid,left,left,571.965814568,left,1
SPC228,SPC,NS,visual_auditory,2,164,mask,visual_word,valid,left,left,830.051693833,right,0
SPC228,SPC,NS,visual_auditory,2,165,mask,auditory_word,valid,left,left,405.780132161,left,1
SPC228,SPC,NS,visual_auditory,2,166,mask,visual_word,valid,right,right,679.536834126,left,0
SPC228,SPC,NS,visual_auditory,2,167,mask,visual_word,valid,right,right,556.287310086,right,1
SPC228,SPC,NS,visual_auditory,2,168,mask,visual_word,neutral,neutral,right,535.354576539,right,1
SPC228,SPC,NS,visual_auditory,2,169,mask,visual_word,invalid,right,left,571.412064135,left,1
SPC228,SPC,NS,visual_auditory,2,170,mask,auditory_word,valid,right,right,472.174511524,right,1
SPC228,SPC,NS,visual_auditory,2,171,mask,visual_word,valid,right,right,463.589456398,right,1
SPC228,SPC,NS,visual_auditory,2,172,mask,visual_word,valid,left,left,445.687947096,left,1
SPC228,SPC,NS,visual_auditory,2,173,mask,auditory_word,valid,left,left,468.436214607,left,1
SPC228,SPC,NS,visual_auditory,2,174,mask,visual_word,invalid,left,right,453.530400293,right,1
SPC228,SPC,NS,visual_auditory,2,175,mask,visual_word,valid,right,right,670.909527456,right,1
SPC228,SPC,NS,visual_auditory,2,176,mask,auditory_word,valid,left,left,365.332970396,left,1
SPC228,SPC,NS,visual_auditory,2,177,mask,auditory_word,valid,left,left,450.068338541,left,1
SPC228,SPC,NS,visual_auditory,2,178,mask,auditory_word,valid,left,left,1019.85532045,up,0
SPC228,SPC,NS,visual_auditory,2,179,mask,auditory_word,valid,right,right,469.942224212,right,1
SPC228,SPC,NS,visual_auditory,2,180,mask,visual_word,invalid,left,right,654.640782159,down,0
SPC228,SPC,NS,visual_auditory,2,181,mask,visual_word,valid,right,right,592.407214688,right,1
SPC228,SPC,NS,visual_auditory,2,182,mask,auditory_word,valid,left,left,937.549413415,down,0
SPC228,SPC,NS,visual_auditory,2,183,mask,visual_word,valid,right,right,487.911912147,right,1
SPC228,SPC,NS,visual_auditory,2,184,mask,auditory_word,valid,left,left,536.67205479,left,1
SPC228,SPC,NS,visual_auditory,2,185,mask,auditory_word,valid,left,left,558.05739155,right,0
SPC228,SPC,NS,visual_auditory,2,186,mask,visual_word,valid,right,right,498.493670253,right,1
SPC228,SPC,NS,visual_auditory,2,187,mask,visual_word,valid,left,left,391.933485866,left,1
SPC228,SPC,NS,visual_auditory,2,188,mask,visual_word,valid,left,left,408.318742644,left,1
SPC228,SPC,NS,visual_auditory,2,189,mask,visual_word,neutral,neutral,right,395.385304699,right,1
SPC228,SPC,NS,visual_auditory,2,190,mask,auditory_word,valid,left,left,469.164412702,left,1
SPC228,SPC,NS,visual_auditory,2,191,mask,auditory_word,valid,left,left,462.223964976,left,1
SPC228,SPC,NS,visual_auditory,2,192,mask,visual_word,valid,right,right,486.636365065,right,1
SPC228,SPC,NS,visual_auditory,2,193,mask,visual_word,valid,left,left,707.043835893,left,1
SPC228,SPC,NS,visual_auditory,2,194,mask,visual_word,invalid,left,down,559.796424583,right,0
SPC228,SPC,NS,visual_auditory,2,195,mask,visual_word,valid,right,right,652.885424905,right,1
SPC228,SPC,NS,visual_auditory,2,196,mask,auditory_word,neutral,neutral,left,604.654386174,left,1
SPC228,SPC,NS,visual_auditory,2,197,mask,auditory_word,invalid,left,down,632.471552351,left,0
SPC228,SPC,NS,visual_auditory,2,198,mask,visual_word,invalid,left,down,553.130611544,down,1
SPC228,SPC,NS,visual_auditory,2,199,mask,auditory_word,valid,right,right,388.585375156,right,1
SPC228,SPC,NS,visual_auditory,2,200,mask,visual_word,invalid,right,up,776.652209461,down,0
SPC228,SPC,NS,visual_auditory,2,201,mask,auditory_word,valid,right,right,499.762495281,right,1
SPC228,SPC,NS,visual_auditory,2,202,mask,auditory_word,valid,left,left,410.791735398,left,1
SPC228,SPC,NS,visual_auditory,2,203,mask,auditory_word,valid,right,right,371.218091343,right,1
SPC228,SPC,NS,visual_auditory,2,204,mask,visual_word,valid,right,right,510.621128837,right,1
SPC228,SPC,NS,visual_auditory,2,205,mask,visual_word,neutral,neutral,left,499.683433911,down,0
SPC228,SPC,NS,visual_auditory,2,206,mask,visual_word,valid,left,left,443.161499919,left,1
SPC228,SPC,NS,visual_auditory,2,207,mask,visual_word,valid,left,left,443.522558082,left,1
SPC228,SPC,NS,visual_auditory,2,208,mask,visual_word,invalid,left,down,642.283821246,left,0
SPC228,SPC,NS,visual_auditory,2,209,mask,auditory_word,valid,right,right,420.353696216,right,1
SPC228,SPC,NS,visual_auditory,2,210,mask,visual_word,neutral,neutral,right,535.449962365,right,1
SPC228,SPC,NS,visual_auditory,2,211,mask,visual_word,valid,right,right,557.246291079,right,1
SPC228,SPC,NS,visual_auditory,2,212,mask,visual_word,valid,left,left,602.621193044,left,1
SPC228,SPC,NS,visual_auditory,3,213,mask,auditory_word,valid,right,right,502.621833002,right,1
SPC228,SPC,NS,visual_auditory,3,214,mask,auditory_word,valid,left,left,491.359569598,left,1
SPC228,SPC,NS,visual_auditory,3,215,mask,auditory_word,valid,right,right,393.424771493,right,1
SPC228,SPC,NS,visual_auditory,3,216,mask,visual_word,valid,right,right,426.847942639,right,1
SPC228,SPC,NS,visual_auditory,3,217,mask,auditory_word,valid,left,left,434.259238653,left,1
SPC228,SPC,NS,visual_auditory,3,218,mask,auditory_word,valid,left,left,396.983499639,left,1
SPC228,SPC,NS,visual_auditory,3,219,mask,auditory_word,valid,left,left,390.756525798,left,1
SPC228,SPC,NS,visual_auditory,3,220,mask,visual_word,valid,left,left,1023.11956859,down,0
SPC228,SPC,NS,visual_auditory,3,221,mask,auditory_word,valid,right,right,366.567866644,right,1
SPC228,SPC,NS,visual_auditory,3,222,mask,auditory_word,valid,left,left,419.021493755,left,1
SPC228,SPC,NS,visual_auditory,3,223,mask,visual_word,valid,right,right,406.417425722,right,1
SPC228,SPC,NS,visual_auditory,3,224,mask,visual_word,valid,right,right,742.736424319,right,1
SPC228,SPC,NS,visual_auditory,3,225,mask,auditory_word,invalid,right,left,465.264471946,left,1
SPC228,SPC,NS,visual_auditory,3,226,mask,visual_word,valid,left,left,610.289518721,left,1
SPC228,SPC,NS,visual_auditory,3,227,mask,visual_word,valid,left,left,450.052334229,left,1
SPC228,SPC,NS,visual_auditory,3,228,mask,auditory_word,invalid,right,up,538.464222336,up,1
SPC228,SPC,NS,visual_auditory,3,229,mask,visual_word,valid,right,right,470.204055542,right,1
SPC228,SPC,NS,visual_auditory,3,230,mask,auditory_word,valid,left,left,462.960485136,left,1
SPC228,SPC,NS,visual_auditory,3,231,mask,auditory_word,valid,right,right,646.041003056,right,1
SPC228,SPC,NS,visual_auditory,3,232,mask,auditory_word,invalid,left,down,574.131203815,down,1
SPC228,SPC,NS,visual_auditory,3,233,mask,visual_word,valid,left,left,570.537906373,left,1
SPC228,SPC,NS,visual_auditory,3,234,mask,auditory_word,valid,right,right,405.287518166,right,1
SPC228,SPC,NS,visual_auditory,3,235,mask,visual_word,valid,left,left,481.018837076,left,1
SPC228,SPC,NS,visual_auditory,3,236,mask,auditory_word,neutral,neutral,left,408.768465044,left,1
SPC228,SPC,NS,visual_auditory,3,237,mask,auditory_word,valid,left,left,408.535121707,left,1
SPC228,SPC,NS,visual_auditory,3,238,mask,visual_word,invalid,right,left,400.985867949,left,1
SPC228,SPC,NS,visual_auditory,3,239,mask,auditory_word,valid,right,right,409.327977337,right,1
SPC228,SPC,NS,visual_auditory,3,240,mask,visual_word,valid,left,left,370.098426705,left,1
SPC228,SPC,NS,visual_auditory,3,241,mask,auditory_word,valid,left,left,387.827409199,left,1
SPC228,SPC,NS,visual_auditory,3,242,mask,visual_word,invalid,right,left,397.582062287,left,1
SPC228,SPC,NS,visual_auditory,3,243,mask,auditory_word,valid,right,right,510.683225933,right,1
SPC228,SPC,NS,visual_auditory,3,244,mask,auditory_word,valid,left,left,342.081206152,left,1
SPC228,SPC,NS,visual_auditory,3,245,mask,auditory_word,invalid,left,right,434.473056579,left,0
SPC228,SPC,NS,visual_auditory,3,246,mask,auditory_word,valid,right,right,386.571387295,right,1
SPC228,SPC,NS,visual_auditory,3,247,mask,auditory_word,valid,left,left,347.315910039,left,1
SPC228,SPC,NS,visual_auditory,3,248,mask,visual_word,valid,left,left,553.370996844,left,1
SPC228,SPC,NS,visual_auditory,3,249,mask,auditory_word,valid,right,right,460.124833742,right,1
SPC228,SPC,NS,visual_auditory,3,250,mask,auditory_word,invalid,left,up,749.889410101,up,1
SPC228,SPC,NS,visual_auditory,3,251,mask,auditory_word,invalid,right,up,531.63292422,up,1
SPC228,SPC,NS,visual_auditory,3,252,mask,visual_word,valid,right,right,746.390218148,left,0
SPC228,SPC,NS,visual_auditory,3,253,mask,auditory_word,neutral,neutral,right,448.494470445,right,1
SPC228,SPC,NS,visual_auditory,3,254,mask,auditory_word,valid,left,left,410.516780568,left,1
SPC228,SPC,NS,visual_auditory,3,255,mask,auditory_word,valid,right,right,373.940751888,right,1
SPC228,SPC,NS,visual_auditory,3,256,mask,auditory_word,valid,left,left,425.358897541,left,1
SPC228,SPC,NS,visual_auditory,3,257,mask,visual_word,valid,right,right,403.464302421,right,1
SPC228,SPC,NS,visual_auditory,3,258,mask,auditory_word,valid,right,right,1115.52006146,down,0
SPC228,SPC,NS,visual_auditory,3,259,mask,visual_word,valid,left,left,384.276683209,left,1
SPC228,SPC,NS,visual_auditory,3,260,mask,auditory_word,valid,right,right,354.045100277,right,1
SPC228,SPC,NS,visual_auditory,3,261,mask,auditory_word,valid,right,right,564.096154179,right,1
SPC228,SPC,NS,visual_auditory,3,262,mask,visual_word,invalid,right,down,535.882079974,down,1
SPC228,SPC,NS,visual_auditory,3,263,mask,visual_word,valid,right,right,501.251220237,right,1
SPC228,SPC,NS,visual_auditory,3,264,mask,visual_word,valid,right,right,549.009810667,right,1
SPC228,SPC,NS,visual_auditory,3,265,mask,auditory_word,invalid,left,up,433.43597441,up,1
SPC228,SPC,NS,visual_auditory,3,266,mask,visual_word,neutral,neutral,left,624.849318992,down,0
SPC228,SPC,NS,visual_auditory,3,267,mask,visual_word,valid,left,left,449.278363725,left,1
SPC228,SPC,NS,visual_auditory,3,268,mask,auditory_word,invalid,left,down,711.682537571,down,1
SPC228,SPC,NS,visual_auditory,3,269,mask,visual_word,invalid,left,right,420.401709154,right,1
SPC228,SPC,NS,visual_auditory,3,270,mask,auditory_word,valid,left,left,735.496375011,down,0
SPC228,SPC,NS,visual_auditory,3,271,mask,visual_word,valid,left,left,517.605108675,left,1
SPC228,SPC,NS,visual_auditory,3,272,mask,auditory_word,neutral,neutral,left,578.334267018,right,0
SPC228,SPC,NS,visual_auditory,3,273,mask,visual_word,valid,right,right,532.404013909,right,1
SPC228,SPC,NS,visual_auditory,3,274,mask,auditory_word,valid,right,right,424.839396263,right,1
SPC228,SPC,NS,visual_auditory,3,275,mask,auditory_word,valid,right,right,410.237344448,right,1
SPC228,SPC,NS,visual_auditory,3,276,mask,auditory_word,valid,left,left,403.678760631,left,1
SPC228,SPC,NS,visual_auditory,3,277,mask,visual_word,valid,right,right,575.082502561,right,1
SPC228,SPC,NS,visual_auditory,3,278,mask,visual_word,valid,left,left,561.799529474,left,1
SPC228,SPC,NS,visual_auditory,3,279,mask,auditory_word,invalid,left,up,518.571771448,up,1
SPC228,SPC,NS,visual_auditory,3,280,mask,visual_word,valid,left,left,434.323576046,left,1
SPC228,SPC,NS,visual_auditory,3,281,mask,auditory_word,valid,right,right,529.060384259,right,1
SPC228,SPC,NS,visual_auditory,3,282,mask,visual_word,valid,left,left,444.189939648,left,1
SPC228,SPC,NS,visual_auditory,3,283,mask,visual_word,valid,right,right,493.231758941,right,1
SPC228,SPC,NS,visual_auditory,3,284,mask,visual_word,invalid,right,left,396.306195296,left,1
SPC228,SPC,NS,visual_auditory,3,285,mask,auditory_word,invalid,right,left,430.715874769,left,1
SPC228,SPC,NS,visual_auditory,3,286,mask,visual_word,invalid,left,down,1206.46767924,left,0
SPC228,SPC,NS,visual_auditory,3,287,mask,auditory_word,valid,left,left,526.90011682,left,1
SPC228,SPC,NS,visual_auditory,3,288,mask,visual_word,neutral,neutral,left,403.314501513,left,1
SPC228,SPC,NS,visual_auditory,3,289,mask,auditory_word,valid,right,right,429.730326636,right,1
SPC228,SPC,NS,visual_auditory,3,290,mask,auditory_word,valid,right,right,400.462205755,right,1
SPC228,SPC,NS,visual_auditory,3,291,mask,auditory_word,valid,left,left,377.204679651,left,1
SPC228,SPC,NS,visual_auditory,3,292,mask,auditory_word,invalid,left,down,428.943872685,left,0
SPC228,SPC,NS,visual_auditory,3,293,mask,auditory_word,invalid,right,left,422.689051367,left,1
SPC228,SPC,NS,visual_auditory,3,294,mask,auditory_word,valid,left,left,478.78046846,left,1
SPC228,SPC,NS,visual_auditory,3,295,mask,visual_word,valid,left,left,1245.17420749,left,1
SPC228,SPC,NS,visual_auditory,3,296,mask,auditory_word,neutral,neutral,left,517.666565487,left,1
SPC228,SPC,NS,visual_auditory,3,297,mask,visual_word,valid,left,left,411.687018815,left,1
SPC228,SPC,NS,visual_auditory,3,298,mask,visual_word,valid,right,right,612.121376907,right,1
SPC228,SPC,NS,visual_auditory,3,299,mask,visual_word,invalid,left,right,699.534913525,down,0
SPC228,SPC,NS,visual_auditory,3,300,mask,auditory_word,neutral,neutral,left,392.352159834,left,1
SPC228,SPC,NS,visual_auditory,3,301,mask,visual_word,invalid,right,down,553.07075521,left,0
SPC228,SPC,NS,visual_auditory,3,302,mask,auditory_word,valid,left,left,588.799833553,right,0
