subj_id	date	computer	experimenter	part	trial_ix	cue_present	cue_type	cue_loc	cue_pos_x	cue_pos_y	target_present	target_loc	target_pos_x	target_pos_y	target_opacity	rt	key	response	is_correct
SPC1_101	2015_Apr_09_1552	LL-Kramer	PME	practice	0	0					1	left	-187.204519776	-14.5850662337	1.0	2078.27617461		timeout	0
SPC1_101	2015_Apr_09_1552	LL-Kramer	PME	practice	1	0					1	right	202.188519795	-3.8442932299	1.0	1724.70900929	y	present	1
SPC1_101	2015_Apr_09_1552	LL-Kramer	PME	practice	2	0					1	left	-199.896339459	2.26137841291	1.0	860.64682994	y	present	1
SPC1_101	2015_Apr_09_1552	LL-Kramer	PME	practice	3	0					0					1007.8951912	u	absent	1
SPC1_101	2015_Apr_09_1552	LL-Kramer	PME	practice	4	0					1	right	221.729750326	9.34792219704	1.0	844.284038059	u	absent	0
SPC1_101	2015_Apr_09_1552	LL-Kramer	PME	practice	5	0					1	right	218.072059113	-3.43656678362	1.0	1070.82276791	u	absent	0
SPC1_101	2015_Apr_09_1552	LL-Kramer	PME	practice	6	0					1	right	219.499898104	-14.8603356976	1.0	1037.55596885	u	absent	0
SPC1_101	2015_Apr_09_1552	LL-Kramer	PME	practice	7	0					1	right	186.417020296	-0.807678896253	1.0	244.040491059	y	present	1
SPC1_101	2015_Apr_09_1552	LL-Kramer	PME	practice	8	0					1	left	-222.394756931	3.74461965788	1.0	844.16082222	y	present	1
SPC1_101	2015_Apr_09_1552	LL-Kramer	PME	practice	9	0					0					2028.5338955	y	present	0
SPC1_101	2015_Apr_09_1552	LL-Kramer	PME	practice	10	0					1	left	-223.319908565	-20.9629202022	1.0	962.117664516	y	present	1
SPC1_101	2015_Apr_09_1552	LL-Kramer	PME	practice	11	0					1	right	202.965843566	-3.27580052459	1.0	611.279190518	u	absent	0
SPC1_101	2015_Apr_09_1552	LL-Kramer	PME	practice	12	0					1	right	213.278700171	-22.0961634692	1.0	952.934942674	u	absent	0
SPC1_101	2015_Apr_09_1552	LL-Kramer	PME	practice	13	0					1	right	191.323776682	11.1683644542	1.0	746.266375296	u	absent	0
SPC1_101	2015_Apr_09_1552	LL-Kramer	PME	practice	14	0					1	left	-212.812310547	-0.746524323164	1.0	876.949573867	y	present	1
SPC1_101	2015_Apr_09_1552	LL-Kramer	PME	practice	15	0					1	left	-206.044570048	14.6370907115	1.0	1263.13548442	u	absent	0
SPC1_101	2015_Apr_09_1552	LL-Kramer	PME	practice	16	0					1	left	-215.417100106	-19.6307256544	1.0	748.420708347	y	present	1
SPC1_101	2015_Apr_09_1552	LL-Kramer	PME	practice	17	0					1	right	199.284188416	19.4706891267	1.0	741.808368824	u	absent	0
SPC1_101	2015_Apr_09_1552	LL-Kramer	PME	practice	18	0					1	right	212.215114942	-23.6571718156	1.0	594.204006251	u	absent	0
SPC1_101	2015_Apr_09_1552	LL-Kramer	PME	practice	19	0					1	right	216.327713028	-7.43548018352	1.0	619.497239124	u	absent	0
SPC1_101	2015_Apr_09_1552	LL-Kramer	PME	calibration	0	0					1	right	185.43743248	-12.1696433673	0.8	2062.86323909		timeout	0
SPC1_101	2015_Apr_09_1552	LL-Kramer	PME	calibration	1	0					1	left	-188.895326425	21.1171118554	1.0	264.890924096	y	present	1
SPC1_101	2015_Apr_09_1552	LL-Kramer	PME	calibration	2	0					1	right	215.968301245	-13.279697255	1.0	406.948610675	u	absent	0
SPC1_101	2015_Apr_09_1552	LL-Kramer	PME	calibration	3	0					1	right	181.755061381	-18.0088276323	1.0	230.567430146	u	absent	0
SPC1_101	2015_Apr_09_1552	LL-Kramer	PME	calibration	4	0					1	right	202.944234607	14.040396083	1.0	227.804814465	y	present	1
SPC1_101	2015_Apr_09_1552	LL-Kramer	PME	calibration	5	0					0					44.6229605004	u	absent	1
SPC1_101	2015_Apr_09_1552	LL-Kramer	PME	calibration	6	0					1	right	210.100745454	1.38467147331	1.0	263.484077062	u	absent	0
SPC1_101	2015_Apr_09_1552	LL-Kramer	PME	calibration	7	0					1	left	-200.032134766	14.6445236739	1.0	121.432629414	u	absent	0
SPC1_101	2015_Apr_09_1552	LL-Kramer	PME	calibration	8	0					1	left	-216.287315277	10.9311569278	1.0	444.14740894	y	present	1
SPC1_101	2015_Apr_09_1552	LL-Kramer	PME	calibration	9	0					1	right	178.587746557	-3.86015302715	1.0	421.716221608	u	absent	0
SPC1_101	2015_Apr_09_1552	LL-Kramer	PME	calibration	10	0					0					889.796026517	u	absent	1
SPC1_101	2015_Apr_09_1552	LL-Kramer	PME	calibration	11	0					0					603.06465067	u	absent	1
SPC1_101	2015_Apr_09_1552	LL-Kramer	PME	calibration	12	0					1	right	196.574782319	-10.9891584284	1.0	541.31035693	y	present	1
SPC1_101	2015_Apr_09_1552	LL-Kramer	PME	calibration	13	0					1	left	-218.398418195	21.6196626535	1.0	504.308080766	y	present	1
SPC1_101	2015_Apr_09_1552	LL-Kramer	PME	calibration	14	0					0					601.558762137	u	absent	1
SPC1_101	2015_Apr_09_1552	LL-Kramer	PME	calibration	15	0					0					643.914701883	u	absent	1
SPC1_101	2015_Apr_09_1552	LL-Kramer	PME	calibration	16	0					0					528.771164827	u	absent	1
SPC1_101	2015_Apr_09_1552	LL-Kramer	PME	calibration	17	0					1	right	203.623837841	-7.41204352044	1.0	486.071701627	u	absent	0
SPC1_101	2015_Apr_09_1552	LL-Kramer	PME	calibration	18	0					1	right	210.744049105	-4.39899679199	1.0	478.062652517	y	present	1
SPC1_101	2015_Apr_09_1552	LL-Kramer	PME	calibration	19	0					1	right	176.873936318	-8.92276371993	1.0	485.649413429	y	present	1
SPC1_101	2015_Apr_09_1552	LL-Kramer	PME	calibration	20	0					0					1052.32435977	u	absent	1
SPC1_101	2015_Apr_09_1552	LL-Kramer	PME	calibration	21	0					0					870.710781775	u	absent	1
SPC1_101	2015_Apr_09_1552	LL-Kramer	PME	calibration	22	0					0					939.969172701	y	present	0
SPC1_101	2015_Apr_09_1552	LL-Kramer	PME	calibration	23	0					0					777.374552563	y	present	0
SPC1_101	2015_Apr_09_1552	LL-Kramer	PME	calibration	24	0					1	right	199.942030375	-23.9429168055	1.0	356.690071058	u	absent	0
SPC1_101	2015_Apr_09_1552	LL-Kramer	PME	calibration	25	0					1	left	-204.808217461	8.18295089681	1.0	602.602590341	y	present	1
SPC1_101	2015_Apr_09_1552	LL-Kramer	PME	calibration	26	0					1	left	-183.905693948	-10.301451888	1.0	533.091138117	y	present	1
SPC1_101	2015_Apr_09_1552	LL-Kramer	PME	calibration	27	0					1	right	209.298110979	-0.315385512288	1.0	589.249625336	u	absent	0
SPC1_101	2015_Apr_09_1552	LL-Kramer	PME	calibration	28	0					1	left	-182.671893935	-22.9423791074	1.0	1019.4424158	y	present	1
SPC1_101	2015_Apr_09_1552	LL-Kramer	PME	calibration	29	0					1	left	-203.66213409	-9.74207372771	1.0	477.781126741	y	present	1
SPC1_101	2015_Apr_09_1552	LL-Kramer	PME	calibration	30	0					1	right	216.769667712	-7.41702537997	1.0	877.963767387	y	present	1
SPC1_101	2015_Apr_09_1552	LL-Kramer	PME	calibration	31	0					1	left	-178.325077983	12.7619079112	1.0	541.336871684	u	absent	0
SPC1_101	2015_Apr_09_1552	LL-Kramer	PME	calibration	32	0					1	right	213.240045538	-7.07587775324	1.0	943.715177476	y	present	1
SPC1_101	2015_Apr_09_1552	LL-Kramer	PME	calibration	33	0					1	right	222.033411149	-9.11164913298	1.0	1452.53039571	u	absent	0
SPC1_101	2015_Apr_09_1552	LL-Kramer	PME	calibration	34	0					1	right	177.094116429	3.55743981417	1.0	727.239229251	y	present	1
SPC1_101	2015_Apr_09_1552	LL-Kramer	PME	calibration	35	0					1	left	-186.875977014	1.03910251762	1.0	1160.67814128	u	absent	0
SPC1_101	2015_Apr_09_1552	LL-Kramer	PME	calibration	36	0					1	right	181.768495329	8.61778996689	1.0	826.467997395	y	present	1
SPC1_101	2015_Apr_09_1552	LL-Kramer	PME	calibration	37	0					1	left	-187.824192541	1.30584898368	1.0	735.190569889	y	present	1
SPC1_101	2015_Apr_09_1552	LL-Kramer	PME	calibration	38	0					1	left	-188.808084499	-5.07811106739	1.0	636.005862616	y	present	1
SPC1_101	2015_Apr_09_1552	LL-Kramer	PME	calibration	39	0					1	left	-186.820257259	-19.909135598	1.0	802.252905909	u	absent	0
SPC1_101	2015_Apr_09_1552	LL-Kramer	PME	calibration	40	0					1	left	-191.235173912	5.79757965024	1.0	902.502106503	y	present	1
SPC1_101	2015_Apr_09_1552	LL-Kramer	PME	calibration	41	0					1	left	-180.96036152	8.40892222723	1.0	443.611262366	u	absent	0
SPC1_101	2015_Apr_09_1552	LL-Kramer	PME	calibration	42	0					1	right	182.156249	-9.6294136066	1.0	735.6701768	u	absent	0
SPC1_101	2015_Apr_09_1552	LL-Kramer	PME	calibration	43	0					1	right	212.112788831	17.310256094	1.0	527.619327419	u	absent	0
SPC1_101	2015_Apr_09_1552	LL-Kramer	PME	calibration	44	0					1	left	-190.518438291	15.3845321988	1.0	436.905340757	y	present	1
SPC1_101	2015_Apr_09_1552	LL-Kramer	PME	calibration	45	0					0					970.476866234	u	absent	1
SPC1_101	2015_Apr_09_1552	LL-Kramer	PME	calibration	46	0					1	right	191.583434557	-20.8172060185	1.0	819.578031544	y	present	1
SPC1_101	2015_Apr_09_1552	LL-Kramer	PME	calibration	47	0					1	right	184.923774001	9.93288119783	1.0	670.14999222	u	absent	0
SPC1_101	2015_Apr_09_1552	LL-Kramer	PME	calibration	48	0					1	right	192.540311101	9.33202962868	1.0	1302.67733848	y	present	1
SPC1_101	2015_Apr_09_1552	LL-Kramer	PME	calibration	49	0					0					1568.60507233	u	absent	1
SPC1_101	2015_Apr_09_1552	LL-Kramer	PME	calibration	50	0					1	right	199.731791803	-5.8688667832	1.0	1552.18886072	y	present	1
SPC1_101	2015_Apr_09_1552	LL-Kramer	PME	calibration	51	0					0					1635.63387468	u	absent	1
SPC1_101	2015_Apr_09_1552	LL-Kramer	PME	calibration	52	0					1	left	-200.407013214	3.00045381077	1.0	477.919549681	y	present	1
SPC1_101	2015_Apr_09_1552	LL-Kramer	PME	calibration	53	0					1	right	218.876993026	-3.58392752741	1.0	894.240386318	u	absent	0
SPC1_101	2015_Apr_09_1552	LL-Kramer	PME	calibration	54	0					1	left	-219.088541137	-5.41607194256	1.0	410.560091492	y	present	1
SPC1_101	2015_Apr_09_1552	LL-Kramer	PME	calibration	55	0					1	left	-207.713146257	17.7284540879	1.0	1272.88164711	u	absent	0
SPC1_101	2015_Apr_09_1552	LL-Kramer	PME	calibration	56	0					1	right	183.191184267	17.9604276758	1.0	1546.20858841	u	absent	0
SPC1_101	2015_Apr_09_1552	LL-Kramer	PME	calibration	57	0					1	right	213.083837686	-3.2763074642	1.0	969.531299081	u	absent	0
SPC1_101	2015_Apr_09_1552	LL-Kramer	PME	calibration	58	0					0					1075.36265906	u	absent	1
SPC1_101	2015_Apr_09_1552	LL-Kramer	PME	calibration	59	0					1	right	195.53626839	14.7300230685	1.0	1243.92975261	u	absent	0
SPC1_101	2015_Apr_09_1552	LL-Kramer	PME	calibration	60	0					1	left	-191.954460841	2.96025987026	1.0	946.529262234	y	present	1
SPC1_101	2015_Apr_09_1552	LL-Kramer	PME	calibration	61	0					1	left	-178.776822638	19.6251793673	1.0	1006.13624183	u	absent	0
SPC1_101	2015_Apr_09_1552	LL-Kramer	PME	calibration	62	0					1	right	216.983732608	-16.0328712551	1.0	810.750920791	u	absent	0
SPC1_101	2015_Apr_09_1552	LL-Kramer	PME	calibration	63	0					1	right	205.835783235	15.5683819589	1.0	1078.89225567	u	absent	0
SPC1_101	2015_Apr_09_1552	LL-Kramer	PME	calibration	64	0					1	right	189.673175435	4.1414406789	1.0	1108.67079021	u	absent	0
SPC1_101	2015_Apr_09_1552	LL-Kramer	PME	calibration	65	0					1	left	-197.786418997	8.96905678848	1.0	1020.84068488	u	absent	0
SPC1_101	2015_Apr_09_1552	LL-Kramer	PME	calibration	66	0					0					813.010532875	u	absent	1
SPC1_101	2015_Apr_09_1552	LL-Kramer	PME	calibration	67	0					1	left	-223.152155459	-11.0175952098	1.0	508.533302695	y	present	1
SPC1_101	2015_Apr_09_1552	LL-Kramer	PME	calibration	68	0					1	left	-211.745071591	22.6627709647	1.0	914.441594854	u	absent	0
SPC1_101	2015_Apr_09_1552	LL-Kramer	PME	calibration	69	0					1	left	-202.324741992	-0.72470078984	1.0	702.275092714	y	present	1
SPC1_101	2015_Apr_09_1552	LL-Kramer	PME	calibration	70	0					1	right	207.066811593	-1.77871172556	1.0	531.280328985	u	absent	0
SPC1_101	2015_Apr_09_1552	LL-Kramer	PME	calibration	71	0					1	left	-186.22121485	-19.8765407985	1.0	1060.80677733	u	absent	0
SPC1_101	2015_Apr_09_1552	LL-Kramer	PME	calibration	72	0					1	right	210.191203844	-22.9891631542	1.0	281.947392505	y	present	1
SPC1_101	2015_Apr_09_1552	LL-Kramer	PME	calibration	73	0					1	right	193.951052386	-7.98720341576	1.0	196.543396916	u	absent	0
SPC1_101	2015_Apr_09_1552	LL-Kramer	PME	calibration	74	0					1	right	214.418611386	21.1626669394	1.0	908.455864061	y	present	1
SPC1_101	2015_Apr_09_1552	LL-Kramer	PME	calibration	75	0					1	right	189.371232516	-14.0922444321	1.0	281.565655954	u	absent	0
SPC1_101	2015_Apr_09_1552	LL-Kramer	PME	calibration	76	0					1	left	-200.928692506	-8.08483777342	1.0	768.812980037	y	present	1
SPC1_101	2015_Apr_09_1552	LL-Kramer	PME	calibration	77	0					1	left	-178.636636753	-4.91793628556	1.0	637.198252138	y	present	1
SPC1_101	2015_Apr_09_1552	LL-Kramer	PME	calibration	78	0					1	right	195.770952875	-1.24178425952	1.0	977.40075551	u	absent	0
SPC1_101	2015_Apr_09_1552	LL-Kramer	PME	calibration	79	0					1	left	-204.837493652	2.89644481462	1.0	610.751232132	y	present	1
SPC1_101	2015_Apr_09_1552	LL-Kramer	PME	calibration	80	0					1	right	222.469993069	-19.2325707622	1.0	736.041774973	u	absent	0
SPC1_101	2015_Apr_09_1552	LL-Kramer	PME	calibration	81	0					1	right	202.127954254	-20.9106187276	1.0	958.689838182	u	absent	0
SPC1_101	2015_Apr_09_1552	LL-Kramer	PME	calibration	82	0					1	left	-208.625994926	-10.3254230249	1.0	577.882156242	y	present	1
SPC1_101	2015_Apr_09_1552	LL-Kramer	PME	calibration	83	0					1	right	197.432652485	-18.4454965829	1.0	594.414565712	y	present	1
SPC1_101	2015_Apr_09_1552	LL-Kramer	PME	calibration	84	0					1	right	203.387548467	1.00192943481	1.0	529.314329382	y	present	1
SPC1_101	2015_Apr_09_1552	LL-Kramer	PME	calibration	85	0					1	left	-187.427946989	15.9090691732	1.0	102.1251278	u	absent	0
SPC1_101	2015_Apr_09_1552	LL-Kramer	PME	calibration	86	0					1	right	193.62459343	2.29453759881	1.0	744.673533831	y	present	1
SPC1_101	2015_Apr_09_1552	LL-Kramer	PME	calibration	87	0					0					936.011828482	u	absent	1
SPC1_101	2015_Apr_09_1552	LL-Kramer	PME	calibration	88	0					1	left	-182.123864844	14.4170234471	1.0	593.890506774	y	present	1
SPC1_101	2015_Apr_09_1552	LL-Kramer	PME	calibration	89	0					0					987.694372423	u	absent	1
SPC1_101	2015_Apr_09_1552	LL-Kramer	PME	calibration	90	0					1	left	-177.862080002	-21.1329297015	1.0	596.038600896	y	present	1
SPC1_101	2015_Apr_09_1552	LL-Kramer	PME	calibration	91	0					1	right	208.221184511	-11.4947999458	1.0	719.518333673	y	present	1
SPC1_101	2015_Apr_09_1552	LL-Kramer	PME	calibration	92	0					1	right	200.709598781	-4.13111562076	1.0	627.672006376	u	absent	0
SPC1_101	2015_Apr_09_1552	LL-Kramer	PME	calibration	93	0					1	left	-193.014570528	13.3397443597	1.0	835.819167085	u	absent	0
SPC1_101	2015_Apr_09_1552	LL-Kramer	PME	calibration	94	0					1	left	-183.192965516	16.1920943749	1.0	759.964033496	u	absent	0
SPC1_101	2015_Apr_09_1552	LL-Kramer	PME	calibration	95	0					1	right	201.761124747	7.88439858426	1.0	619.277711492	y	present	1
SPC1_101	2015_Apr_09_1552	LL-Kramer	PME	calibration	96	0					0					581.758395769	u	absent	1
SPC1_101	2015_Apr_09_1552	LL-Kramer	PME	calibration	97	0					1	right	178.14110952	21.9422621431	1.0	711.207483429	u	absent	0
SPC1_101	2015_Apr_09_1552	LL-Kramer	PME	calibration	98	0					1	right	187.446672973	-8.08025469086	1.0	679.355720058	y	present	1
SPC1_101	2015_Apr_09_1552	LL-Kramer	PME	calibration	99	0					1	right	200.746218311	18.2200068519	1.0	494.412966538	u	absent	0
SPC1_101	2015_Apr_09_1552	LL-Kramer	PME	calibration	100	0					1	left	-177.910723656	5.95690291618	1.0	802.207284607	y	present	1
SPC1_101	2015_Apr_09_1552	LL-Kramer	PME	calibration	101	0					1	right	181.59033369	7.32743511579	1.0	978.450431954	u	absent	0
SPC1_101	2015_Apr_09_1552	LL-Kramer	PME	calibration	102	0					0					243.609234691	u	absent	1
SPC1_101	2015_Apr_09_1552	LL-Kramer	PME	calibration	103	0					1	left	-208.664093626	-17.6742481823	1.0	479.943647981	y	present	1
SPC1_101	2015_Apr_09_1552	LL-Kramer	PME	calibration	104	0					1	right	190.21870553	-17.2943186208	1.0	683.383250143	y	present	1
SPC1_101	2015_Apr_09_1552	LL-Kramer	PME	calibration	105	0					1	right	214.51116861	9.39499515356	1.0	550.013861619	y	present	1
SPC1_101	2015_Apr_09_1552	LL-Kramer	PME	calibration	106	0					1	left	-192.07638329	1.45807991317	1.0	844.096484594	u	absent	0
SPC1_101	2015_Apr_09_1552	LL-Kramer	PME	calibration	107	0					0					840.05764639	u	absent	1
SPC1_101	2015_Apr_09_1552	LL-Kramer	PME	calibration	108	0					1	right	208.763873298	-13.5241554994	1.0	1206.1172137	u	absent	0
SPC1_101	2015_Apr_09_1552	LL-Kramer	PME	calibration	109	0					1	left	-208.598876141	15.4836721856	1.0	785.445990041	u	absent	0
SPC1_101	2015_Apr_09_1552	LL-Kramer	PME	calibration	110	0					1	right	218.550368711	16.3797550058	1.0	802.221711725	y	present	1
SPC1_101	2015_Apr_09_1552	LL-Kramer	PME	calibration	111	0					1	right	187.985167537	-10.8185043624	1.0	735.901012085	u	absent	0
SPC1_101	2015_Apr_09_1552	LL-Kramer	PME	calibration	112	0					1	right	220.611496123	6.37521501171	1.0	686.010951642	u	absent	0
SPC1_101	2015_Apr_09_1552	LL-Kramer	PME	calibration	113	0					1	left	-183.690340505	3.89564452687	1.0	615.158159286	y	present	1
SPC1_101	2015_Apr_09_1552	LL-Kramer	PME	calibration	114	0					0					548.57621016	u	absent	1
SPC1_101	2015_Apr_09_1552	LL-Kramer	PME	calibration	115	0					1	left	-217.496930065	-19.3123276613	1.0	652.121832594	y	present	1
SPC1_101	2015_Apr_09_1552	LL-Kramer	PME	calibration	116	0					1	right	187.069154638	-21.6218641597	1.0	687.940298114	y	present	1
SPC1_101	2015_Apr_09_1552	LL-Kramer	PME	calibration	117	0					1	left	-196.020890318	-21.1490657229	1.0	637.157700025	y	present	1
SPC1_101	2015_Apr_09_1552	LL-Kramer	PME	calibration	118	0					0					794.172890019	u	absent	1
SPC1_101	2015_Apr_09_1552	LL-Kramer	PME	calibration	119	0					1	right	181.177926304	22.9884217979	1.0	1591.62777476	u	absent	0
SPC1_101	2015_Apr_09_1552	LL-Kramer	PME	cueing_effect	0	0					0					2069.11957776		timeout	0
SPC1_101	2015_Apr_09_1552	LL-Kramer	PME	cueing_effect	1	1	dot	right	181.498896583	9.55886302893	1	right	181.498896583	9.55886302893	1.30715162814	651.608302258	u	absent	0
SPC1_101	2015_Apr_09_1552	LL-Kramer	PME	cueing_effect	2	0					1	left	-214.153995107	-14.8699162436	1.30715162814	963.195415679	u	absent	0
SPC1_101	2015_Apr_09_1552	LL-Kramer	PME	cueing_effect	3	0					1	right	181.204936907	19.0270232103	1.30715162814	1635.13360173	y	present	1
SPC1_101	2015_Apr_09_1552	LL-Kramer	PME	cueing_effect	4	0					1	left	-216.914440336	-9.10860966043	1.30715162814	552.69147316	y	present	1
SPC1_101	2015_Apr_09_1552	LL-Kramer	PME	cueing_effect	5	0					1	right	215.285563072	-20.6701520322	1.30715162814	1083.48127734	u	absent	0
SPC1_101	2015_Apr_09_1552	LL-Kramer	PME	cueing_effect	6	1	dot	right	197.950788602	-21.6241495306	1	right	197.950788602	-21.6241495306	1.30715162814	936.103460845	u	absent	0
SPC1_101	2015_Apr_09_1552	LL-Kramer	PME	cueing_effect	7	1	dot	right	197.803550699	-18.7068862299	1	right	197.803550699	-18.7068862299	1.30715162814	694.505846594	u	absent	0
SPC1_101	2015_Apr_09_1552	LL-Kramer	PME	cueing_effect	8	1	dot	right	200	0	0					1002.59806728	u	absent	1
SPC1_101	2015_Apr_09_1552	LL-Kramer	PME	cueing_effect	9	1	dot	right	209.933835775	-6.8509678391	1	right	209.933835775	-6.8509678391	1.30715162814	598.043592647	y	present	1
SPC1_101	2015_Apr_09_1552	LL-Kramer	PME	cueing_effect	10	1	dot	left	-201.52456568	7.15194323441	1	left	-201.52456568	7.15194323441	1.30715162814	625.204174314	y	present	1
SPC1_101	2015_Apr_09_1552	LL-Kramer	PME	cueing_effect	11	0					0					1174.79418777	u	absent	1
SPC1_101	2015_Apr_09_1552	LL-Kramer	PME	cueing_effect	12	1	dot	right	205.67925205	-13.4581502025	1	right	205.67925205	-13.4581502025	1.30715162814	918.668766972	y	present	1
SPC1_101	2015_Apr_09_1552	LL-Kramer	PME	cueing_effect	13	1	dot	left	-213.217536206	-3.75275329575	1	left	-213.217536206	-3.75275329575	1.30715162814	719.184948597	y	present	1
SPC1_101	2015_Apr_09_1552	LL-Kramer	PME	cueing_effect	14	1	dot	right	215.448180905	-10.3849921091	1	right	215.448180905	-10.3849921091	1.30715162814	410.971071571	u	absent	0
SPC1_101	2015_Apr_09_1552	LL-Kramer	PME	cueing_effect	15	0					1	right	203.456413014	-5.63124961414	1.30715162814	850.392205641	u	absent	0
SPC1_101	2015_Apr_09_1552	LL-Kramer	PME	cueing_effect	16	1	dot	right	188.590262481	16.2494984337	1	right	188.590262481	16.2494984337	1.30715162814	1205.78928711	u	absent	0
SPC1_101	2015_Apr_09_1552	LL-Kramer	PME	cueing_effect	17	1	dot	right	214.291805747	14.6566919967	1	right	214.291805747	14.6566919967	1.30715162814	427.400930785	y	present	1
SPC1_101	2015_Apr_09_1552	LL-Kramer	PME	cueing_effect	18	0					0					610.759810545	u	absent	1
SPC1_101	2015_Apr_09_1552	LL-Kramer	PME	cueing_effect	19	0					1	right	192.173761872	-11.5006373456	1.30715162814	977.320041042	y	present	1
SPC1_101	2015_Apr_09_1552	LL-Kramer	PME	cueing_effect	20	0					0					496.246002149	u	absent	1
SPC1_101	2015_Apr_09_1552	LL-Kramer	PME	cueing_effect	21	1	dot	left	-203.691616507	-0.112568038442	1	left	-203.691616507	-0.112568038442	1.30715162814	635.722777806	y	present	1
SPC1_101	2015_Apr_09_1552	LL-Kramer	PME	cueing_effect	22	1	dot	right	206.202990976	8.44618934422	1	right	206.202990976	8.44618934422	1.30715162814	622.586220969	y	present	1
SPC1_101	2015_Apr_09_1552	LL-Kramer	PME	cueing_effect	23	0					1	right	221.120934791	22.8415921529	1.30715162814	1252.91088363	u	absent	0
SPC1_101	2015_Apr_09_1552	LL-Kramer	PME	cueing_effect	24	0					1	right	184.403717504	2.47761398045	1.30715162814	585.271615535	y	present	1
SPC1_101	2015_Apr_09_1552	LL-Kramer	PME	cueing_effect	25	1	dot	left	-218.777053044	-19.1140807826	1	left	-218.777053044	-19.1140807826	1.30715162814	766.858678777	u	absent	0
SPC1_101	2015_Apr_09_1552	LL-Kramer	PME	cueing_effect	26	0					1	right	214.021273625	17.6794711433	1.30715162814	1364.64258144	y	present	1
SPC1_101	2015_Apr_09_1552	LL-Kramer	PME	cueing_effect	27	1	dot	left	-211.528705134	-23.8256937024	1	left	-211.528705134	-23.8256937024	1.30715162814	708.040126599	y	present	1
SPC1_101	2015_Apr_09_1552	LL-Kramer	PME	cueing_effect	28	1	dot	right	214.354183348	16.8888242038	1	right	214.354183348	16.8888242038	1.30715162814	700.158582069	y	present	1
SPC1_101	2015_Apr_09_1552	LL-Kramer	PME	cueing_effect	29	0					1	left	-217.957119458	-9.75156151267	1.30715162814	510.762501508	y	present	1
SPC1_101	2015_Apr_09_1552	LL-Kramer	PME	cueing_effect	30	1	dot	right	200	0	0					371.210080106	u	absent	1
SPC1_101	2015_Apr_09_1552	LL-Kramer	PME	cueing_effect	31	1	dot	left	-222.379594095	-18.2288466682	1	left	-222.379594095	-18.2288466682	1.30715162814	842.059908435	u	absent	0
SPC1_101	2015_Apr_09_1552	LL-Kramer	PME	cueing_effect	32	1	dot	right	221.394597067	-23.1746084198	1	right	221.394597067	-23.1746084198	1.30715162814	594.530762639	y	present	1
SPC1_101	2015_Apr_09_1552	LL-Kramer	PME	cueing_effect	33	1	dot	right	186.231252996	0.286738080809	1	right	186.231252996	0.286738080809	1.30715162814	937.038110103	u	absent	0
SPC1_101	2015_Apr_09_1552	LL-Kramer	PME	cueing_effect	34	0					1	right	207.186953221	-8.03699253098	1.30715162814	536.016351543	u	absent	0
SPC1_101	2015_Apr_09_1552	LL-Kramer	PME	cueing_effect	35	0					1	right	195.546288498	-5.50954573449	1.30715162814	352.42624674	u	absent	0
SPC1_101	2015_Apr_09_1552	LL-Kramer	PME	cueing_effect	36	0					0					602.021602448	u	absent	1
SPC1_101	2015_Apr_09_1552	LL-Kramer	PME	cueing_effect	37	0					1	left	-178.881110046	-13.1819716489	1.30715162814	669.407186098	u	absent	0
SPC1_101	2015_Apr_09_1552	LL-Kramer	PME	cueing_effect	38	1	dot	left	-198.072566506	9.84386012073	1	left	-198.072566506	9.84386012073	1.30715162814	402.744834311	y	present	1
SPC1_101	2015_Apr_09_1552	LL-Kramer	PME	cueing_effect	39	1	dot	right	199.268720303	19.6897327744	1	right	199.268720303	19.6897327744	1.30715162814	919.537908398	y	present	1
SPC1_101	2015_Apr_09_1552	LL-Kramer	PME	cueing_effect	40	0					1	left	-220.61545029	13.2427970649	1.30715162814	519.347079098	y	present	1
SPC1_101	2015_Apr_09_1552	LL-Kramer	PME	cueing_effect	41	1	dot	left	-180.429775677	-13.603527001	1	left	-180.429775677	-13.603527001	1.30715162814	819.137806538	u	absent	0
SPC1_101	2015_Apr_09_1552	LL-Kramer	PME	cueing_effect	42	0					0					706.765073352	u	absent	1
SPC1_101	2015_Apr_09_1552	LL-Kramer	PME	cueing_effect	43	1	dot	right	221.904045642	-21.2189690124	1	right	221.904045642	-21.2189690124	1.30715162814	769.305455033	y	present	1
SPC1_101	2015_Apr_09_1552	LL-Kramer	PME	cueing_effect	44	1	dot	left	-200	0	0					702.125751413	u	absent	1
SPC1_101	2015_Apr_09_1552	LL-Kramer	PME	cueing_effect	45	1	dot	left	-203.091354642	12.6214886592	1	left	-203.091354642	12.6214886592	1.30715162814	514.996691607	u	absent	0
SPC1_101	2015_Apr_09_1552	LL-Kramer	PME	cueing_effect	46	0					0					510.874799453	y	present	0
SPC1_101	2015_Apr_09_1552	LL-Kramer	PME	cueing_effect	47	0					1	left	-199.250696309	14.6781524525	1.30715162814	679.869250394	u	absent	0
SPC1_101	2015_Apr_09_1552	LL-Kramer	PME	cueing_effect	48	1	dot	left	-220.169000231	2.11238996741	1	left	-220.169000231	2.11238996741	1.30715162814	932.78052425	y	present	1
SPC1_101	2015_Apr_09_1552	LL-Kramer	PME	cueing_effect	49	1	dot	right	203.402996456	-9.9037337677	1	right	203.402996456	-9.9037337677	1.30715162814	647.817846388	u	absent	0
SPC1_101	2015_Apr_09_1552	LL-Kramer	PME	cueing_effect	50	0					1	right	203.485626302	-15.1999595183	1.30715162814	896.543280222	y	present	1
SPC1_101	2015_Apr_09_1552	LL-Kramer	PME	cueing_effect	51	0					1	right	192.448733813	-1.22090198431	1.30715162814	744.513274636	y	present	1
SPC1_101	2015_Apr_09_1552	LL-Kramer	PME	cueing_effect	52	1	dot	left	-179.449615024	-22.9371183069	1	left	-179.449615024	-22.9371183069	1.30715162814	931.282044388	u	absent	0
SPC1_101	2015_Apr_09_1552	LL-Kramer	PME	cueing_effect	53	0					0					1119.49392455	y	present	0
SPC1_101	2015_Apr_09_1552	LL-Kramer	PME	cueing_effect	54	0					1	left	-197.090856975	16.2827241262	1.30715162814	591.625045054	u	absent	0
SPC1_101	2015_Apr_09_1552	LL-Kramer	PME	cueing_effect	55	1	dot	right	193.389316353	2.1056842814	1	right	193.389316353	2.1056842814	1.30715162814	686.241397168	y	present	1
SPC1_101	2015_Apr_09_1552	LL-Kramer	PME	cueing_effect	56	0					1	left	-186.71237872	-0.535322903702	1.30715162814	579.648904037	y	present	1
SPC1_101	2015_Apr_09_1552	LL-Kramer	PME	cueing_effect	57	0					1	right	207.75978367	3.85364251627	1.30715162814	552.450110205	y	present	1
SPC1_101	2015_Apr_09_1552	LL-Kramer	PME	cueing_effect	58	1	dot	right	200	0	0					702.336310409	u	absent	1
SPC1_101	2015_Apr_09_1552	LL-Kramer	PME	cueing_effect	59	1	dot	right	200	0	0					1599.82983675	u	absent	1
SPC1_101	2015_Apr_09_1552	LL-Kramer	PME	cueing_effect	60	0					1	right	184.425548651	-17.3013873048	1.30715162814	462.681300472	u	absent	0
SPC1_101	2015_Apr_09_1552	LL-Kramer	PME	cueing_effect	61	0					1	left	-202.929626512	12.6225738123	1.30715162814	703.066639137	u	absent	0
SPC1_101	2015_Apr_09_1552	LL-Kramer	PME	cueing_effect	62	0					0					535.922769923	u	absent	1
SPC1_101	2015_Apr_09_1552	LL-Kramer	PME	cueing_effect	63	1	dot	left	-177.248777859	9.54524381921	1	left	-177.248777859	9.54524381921	1.30715162814	385.629098397	u	absent	0
SPC1_101	2015_Apr_09_1552	LL-Kramer	PME	cueing_effect	64	0					1	left	-204.973763611	15.2140337634	1.30715162814	702.583522536	u	absent	0
SPC1_101	2015_Apr_09_1552	LL-Kramer	PME	cueing_effect	65	0					1	right	201.042826635	-5.96980693434	1.30715162814	317.32212333	u	absent	0
SPC1_101	2015_Apr_09_1552	LL-Kramer	PME	cueing_effect	66	1	dot	right	197.076418982	-19.5127182333	1	right	197.076418982	-19.5127182333	1.30715162814	729.38342439	u	absent	0
SPC1_101	2015_Apr_09_1552	LL-Kramer	PME	cueing_effect	67	0					1	left	-188.976794253	-4.25516086353	1.30715162814	426.832421217	y	present	1
SPC1_101	2015_Apr_09_1552	LL-Kramer	PME	cueing_effect	68	0					0					487.925792579	u	absent	1
SPC1_101	2015_Apr_09_1552	LL-Kramer	PME	cueing_effect	69	0					0					569.281981327	u	absent	1
SPC1_101	2015_Apr_09_1552	LL-Kramer	PME	cueing_effect	70	1	dot	right	200	0	0					261.630765628	u	absent	1
SPC1_101	2015_Apr_09_1552	LL-Kramer	PME	cueing_effect	71	1	dot	right	218.378527566	21.4265334867	1	right	218.378527566	21.4265334867	1.30715162814	553.157043178	u	absent	0
SPC1_101	2015_Apr_09_1552	LL-Kramer	PME	cueing_effect	72	0					1	right	179.448779388	19.1352401423	1.30715162814	477.937486488	y	present	1
SPC1_101	2015_Apr_09_1552	LL-Kramer	PME	cueing_effect	73	1	dot	left	-181.183408048	-21.9090741408	1	left	-181.183408048	-21.9090741408	1.30715162814	577.896973584	y	present	1
SPC1_101	2015_Apr_09_1552	LL-Kramer	PME	cueing_effect	74	0					1	left	-208.259924853	-23.1446105972	1.30715162814	536.29631782	y	present	1
SPC1_101	2015_Apr_09_1552	LL-Kramer	PME	cueing_effect	75	1	dot	right	181.578141426	-10.1492664405	1	right	181.578141426	-10.1492664405	1.30715162814	510.335924104	y	present	1
SPC1_101	2015_Apr_09_1552	LL-Kramer	PME	cueing_effect	76	0					1	right	176.000205899	-10.039896935	1.30715162814	498.268150259	y	present	1
SPC1_101	2015_Apr_09_1552	LL-Kramer	PME	cueing_effect	77	1	dot	left	-196.935312904	-11.578102471	1	left	-196.935312904	-11.578102471	1.30715162814	408.763319254	y	present	1
SPC1_101	2015_Apr_09_1552	LL-Kramer	PME	cueing_effect	78	1	dot	left	-200	0	0					512.096822727	y	present	0
SPC1_101	2015_Apr_09_1552	LL-Kramer	PME	cueing_effect	79	1	dot	right	181.467751616	-22.2609436278	1	right	181.467751616	-22.2609436278	1.30715162814	1176.99960107	u	absent	0
SPC1_101	2015_Apr_09_1552	LL-Kramer	PME	cueing_effect	80	1	dot	right	178.700655345	15.1719137583	1	right	178.700655345	15.1719137583	1.30715162814	562.316370197	y	present	1
SPC1_101	2015_Apr_09_1552	LL-Kramer	PME	cueing_effect	81	0					1	left	-210.714977098	-14.550455718	1.30715162814	445.897779893	u	absent	0
SPC1_101	2015_Apr_09_1552	LL-Kramer	PME	cueing_effect	82	1	dot	left	-219.304443647	-22.3479818585	1	left	-219.304443647	-22.3479818585	1.30715162814	583.157444838	u	absent	0
SPC1_101	2015_Apr_09_1552	LL-Kramer	PME	cueing_effect	83	1	dot	right	182.7322681	6.43920223767	1	right	182.7322681	6.43920223767	1.30715162814	623.526329175	y	present	1
SPC1_101	2015_Apr_09_1552	LL-Kramer	PME	cueing_effect	84	0					1	right	204.59826425	-9.39926473755	1.30715162814	752.199466806	u	absent	0
SPC1_101	2015_Apr_09_1552	LL-Kramer	PME	cueing_effect	85	1	dot	right	200.104455549	2.1687411108	1	right	200.104455549	2.1687411108	1.30715162814	252.029264811	u	absent	0
SPC1_101	2015_Apr_09_1552	LL-Kramer	PME	cueing_effect	86	1	dot	left	-198.75135679	20.4023715857	1	left	-198.75135679	20.4023715857	1.30715162814	369.743183721	u	absent	0
SPC1_101	2015_Apr_09_1552	LL-Kramer	PME	cueing_effect	87	0					1	left	-216.837867544	13.5076601449	1.30715162814	491.890545469	y	present	1
SPC1_101	2015_Apr_09_1552	LL-Kramer	PME	cueing_effect	88	1	dot	right	207.054480208	-8.77885402058	1	right	207.054480208	-8.77885402058	1.30715162814	478.021320421	y	present	1
SPC1_101	2015_Apr_09_1552	LL-Kramer	PME	cueing_effect	89	1	dot	right	180.013435709	-11.2705051978	1	right	180.013435709	-11.2705051978	1.30715162814	461.290049832	y	present	1
SPC1_101	2015_Apr_09_1552	LL-Kramer	PME	cueing_effect	90	0					1	right	217.051670771	-17.1774111234	1.30715162814	702.293029055	y	present	1
SPC1_101	2015_Apr_09_1552	LL-Kramer	PME	cueing_effect	91	0					1	left	-183.373042762	-11.1701651239	1.30715162814	546.338043176	y	present	1
SPC1_101	2015_Apr_09_1552	LL-Kramer	PME	cueing_effect	92	1	dot	left	-191.749240032	16.0444287124	1	left	-191.749240032	16.0444287124	1.30715162814	608.467834536	y	present	1
SPC1_101	2015_Apr_09_1552	LL-Kramer	PME	cueing_effect	93	1	dot	right	179.801209243	14.1769973755	1	right	179.801209243	14.1769973755	1.30715162814	481.355954893	y	present	1
SPC1_101	2015_Apr_09_1552	LL-Kramer	PME	cueing_effect	94	1	dot	right	191.785301409	17.6158758493	1	right	191.785301409	17.6158758493	1.30715162814	452.933577355	y	present	1
SPC1_101	2015_Apr_09_1552	LL-Kramer	PME	cueing_effect	95	0					1	left	-205.51851665	4.46095677706	1.30715162814	603.537628893	y	present	1
SPC1_101	2015_Apr_09_1552	LL-Kramer	PME	cueing_effect	96	0					1	left	-203.636364376	-10.5432431162	1.30715162814	465.339025483	y	present	1
SPC1_101	2015_Apr_09_1552	LL-Kramer	PME	cueing_effect	97	1	dot	right	204.99998983	8.71750245681	1	right	204.99998983	8.71750245681	1.30715162814	529.4964239	y	present	1
SPC1_101	2015_Apr_09_1552	LL-Kramer	PME	cueing_effect	98	0					1	left	-215.010189053	1.3873961493	1.30715162814	352.545953356	y	present	1
SPC1_101	2015_Apr_09_1552	LL-Kramer	PME	cueing_effect	99	1	dot	left	-195.335674506	18.3759090122	1	left	-195.335674506	18.3759090122	1.30715162814	511.394958477	y	present	1
SPC1_101	2015_Apr_09_1552	LL-Kramer	PME	cueing_effect	100	0					1	left	-188.610561981	-1.63451765496	1.30715162814	440.372549463	y	present	1
SPC1_101	2015_Apr_09_1552	LL-Kramer	PME	cueing_effect	101	0					1	left	-202.616299073	20.4446532225	1.30715162814	421.544654761	y	present	1
SPC1_101	2015_Apr_09_1552	LL-Kramer	PME	cueing_effect	102	1	dot	right	219.948573693	3.20571987665	1	right	219.948573693	3.20571987665	1.30715162814	488.050958142	y	present	1
SPC1_101	2015_Apr_09_1552	LL-Kramer	PME	cueing_effect	103	1	dot	left	-187.213491376	-2.69662632219	1	left	-187.213491376	-2.69662632219	1.30715162814	628.03853536	y	present	1
SPC1_101	2015_Apr_09_1552	LL-Kramer	PME	cueing_effect	104	1	dot	right	180.595977807	-12.8027052216	1	right	180.595977807	-12.8027052216	1.30715162814	544.367755298	y	present	1
SPC1_101	2015_Apr_09_1552	LL-Kramer	PME	cueing_effect	105	0					1	left	-222.342428087	7.94055664074	1.30715162814	433.440471534	y	present	1
SPC1_101	2015_Apr_09_1552	LL-Kramer	PME	cueing_effect	106	1	dot	left	-189.879227661	-2.81582155658	1	left	-189.879227661	-2.81582155658	1.30715162814	810.104815755	u	absent	0
SPC1_101	2015_Apr_09_1552	LL-Kramer	PME	cueing_effect	107	1	dot	left	-198.291270321	6.97744579565	1	left	-198.291270321	6.97744579565	1.30715162814	637.930530123	u	absent	0
SPC1_101	2015_Apr_09_1552	LL-Kramer	PME	cueing_effect	108	0					1	left	-211.259386726	10.8085813128	1.30715162814	636.357184965	y	present	1
SPC1_101	2015_Apr_09_1552	LL-Kramer	PME	cueing_effect	109	1	dot	left	-208.191599998	-16.952740693	1	left	-208.191599998	-16.952740693	1.30715162814	670.664692298	y	present	1
SPC1_101	2015_Apr_09_1552	LL-Kramer	PME	cueing_effect	110	1	dot	right	202.748808661	21.420883813	1	right	202.748808661	21.420883813	1.30715162814	244.584435597	u	absent	0
SPC1_101	2015_Apr_09_1552	LL-Kramer	PME	cueing_effect	111	1	dot	left	-214.110496832	-22.6249839622	1	left	-214.110496832	-22.6249839622	1.30715162814	627.885685302	y	present	1
SPC1_101	2015_Apr_09_1552	LL-Kramer	PME	cueing_effect	112	0					0					208.700073883	u	absent	1
SPC1_101	2015_Apr_09_1552	LL-Kramer	PME	cueing_effect	113	0					1	left	-221.300469931	5.94504855062	1.30715162814	186.22794468	u	absent	0
SPC1_101	2015_Apr_09_1552	LL-Kramer	PME	cueing_effect	114	0					1	right	193.387365526	-1.69566225593	1.30715162814	551.867173053	y	present	1
SPC1_101	2015_Apr_09_1552	LL-Kramer	PME	cueing_effect	115	1	dot	left	-214.481754973	-21.2959006698	1	left	-214.481754973	-21.2959006698	1.30715162814	1302.4079008	y	present	1
