subj_id,sona_experiment_code,experimenter,cue_contrast,block,trial,mask_type,cue_type,cue_validity,cue_dir,target_loc,rt,response_type,is_correct
SPC115,SPC,DZ,word_arrow,0,0,mask,visual_arrow,neutral,neutral,left,742.719002868,left,1
SPC115,SPC,DZ,word_arrow,0,1,mask,visual_arrow,valid,left,left,802.612222164,left,1
SPC115,SPC,DZ,word_arrow,0,2,mask,visual_word,neutral,neutral,right,654.040766156,right,1
SPC115,SPC,DZ,word_arrow,0,3,mask,visual_word,neutral,neutral,left,670.148775989,left,1
SPC115,SPC,DZ,word_arrow,0,4,mask,visual_word,valid,right,right,723.169427944,right,1
SPC115,SPC,DZ,word_arrow,0,5,mask,visual_arrow,neutral,neutral,right,623.444701938,right,1
SPC115,SPC,DZ,word_arrow,0,6,mask,visual_arrow,valid,right,right,474.542276963,right,1
SPC115,SPC,DZ,word_arrow,0,7,mask,visual_word,valid,left,left,514.663461538,left,1
SPC115,SPC,DZ,word_arrow,0,8,mask,visual_word,invalid,right,left,470.454138074,left,1
SPC115,SPC,DZ,word_arrow,0,9,mask,visual_word,valid,right,right,455.260934141,right,1
SPC115,SPC,DZ,word_arrow,0,10,mask,visual_arrow,valid,right,right,630.701052443,right,1
SPC115,SPC,DZ,word_arrow,0,11,mask,visual_arrow,invalid,left,right,478.128200859,right,1
SPC115,SPC,DZ,word_arrow,0,12,mask,visual_word,valid,left,left,510.37782956,left,1
SPC115,SPC,DZ,word_arrow,0,13,mask,visual_arrow,valid,left,left,500.301200962,left,1
SPC115,SPC,DZ,word_arrow,0,14,mask,visual_word,invalid,left,right,395.523596744,right,1
SPC115,SPC,DZ,word_arrow,0,15,mask,visual_arrow,invalid,right,left,568.016042715,left,1
SPC115,SPC,DZ,word_arrow,1,16,mask,visual_arrow,valid,left,left,586.824618458,left,1
SPC115,SPC,DZ,word_arrow,1,17,mask,visual_arrow,valid,right,right,367.305451706,right,1
SPC115,SPC,DZ,word_arrow,1,18,mask,visual_arrow,valid,left,left,467.055144421,left,1
SPC115,SPC,DZ,word_arrow,1,19,mask,visual_arrow,valid,right,right,363.842120762,right,1
SPC115,SPC,DZ,word_arrow,1,20,mask,visual_word,invalid,left,right,400.288717607,right,1
SPC115,SPC,DZ,word_arrow,1,21,mask,visual_arrow,neutral,neutral,right,364.041534365,right,1
SPC115,SPC,DZ,word_arrow,1,22,mask,visual_arrow,valid,right,right,399.478259755,right,1
SPC115,SPC,DZ,word_arrow,1,23,mask,visual_arrow,neutral,neutral,right,337.350519821,right,1
SPC115,SPC,DZ,word_arrow,1,24,mask,visual_arrow,invalid,left,right,430.714816142,right,1
SPC115,SPC,DZ,word_arrow,1,25,mask,visual_arrow,neutral,neutral,left,464.720436856,left,1
SPC115,SPC,DZ,word_arrow,1,26,mask,visual_arrow,valid,left,left,454.954291716,left,1
SPC115,SPC,DZ,word_arrow,1,27,mask,visual_word,invalid,right,left,525.041611185,left,1
SPC115,SPC,DZ,word_arrow,1,28,mask,visual_arrow,invalid,right,left,499.824272763,left,1
SPC115,SPC,DZ,word_arrow,1,29,mask,visual_word,invalid,right,left,464.985788181,left,1
SPC115,SPC,DZ,word_arrow,1,30,mask,visual_arrow,invalid,right,left,393.06245519,left,1
SPC115,SPC,DZ,word_arrow,1,31,mask,visual_word,valid,right,right,380.863976239,right,1
SPC115,SPC,DZ,word_arrow,1,32,mask,visual_word,invalid,left,right,385.292046503,right,1
SPC115,SPC,DZ,word_arrow,1,33,mask,visual_arrow,neutral,neutral,left,454.040766159,left,1
SPC115,SPC,DZ,word_arrow,1,34,mask,visual_word,valid,left,left,398.823683805,left,1
SPC115,SPC,DZ,word_arrow,1,35,mask,visual_arrow,valid,left,left,410.293326848,left,1
SPC115,SPC,DZ,word_arrow,1,36,mask,visual_arrow,valid,left,left,387.0483586,left,1
SPC115,SPC,DZ,word_arrow,1,37,mask,visual_arrow,valid,left,left,527.198991091,left,1
SPC115,SPC,DZ,word_arrow,1,38,mask,visual_word,neutral,neutral,left,388.622541741,left,1
SPC115,SPC,DZ,word_arrow,1,39,mask,visual_arrow,neutral,neutral,left,422.035043019,left,1
SPC115,SPC,DZ,word_arrow,1,40,mask,visual_word,invalid,left,right,477.842364027,right,1
SPC115,SPC,DZ,word_arrow,1,41,mask,visual_word,valid,left,left,587.297385537,left,1
SPC115,SPC,DZ,word_arrow,1,42,mask,visual_arrow,neutral,neutral,right,549.076871863,right,1
SPC115,SPC,DZ,word_arrow,1,43,mask,visual_arrow,neutral,neutral,right,536.168442075,right,1
SPC115,SPC,DZ,word_arrow,1,44,mask,visual_arrow,valid,left,left,483.254698865,left,1
SPC115,SPC,DZ,word_arrow,1,45,mask,visual_word,neutral,neutral,left,490.418224421,left,1
SPC115,SPC,DZ,word_arrow,1,46,mask,visual_word,valid,left,left,481.246479052,left,1
SPC115,SPC,DZ,word_arrow,1,47,mask,visual_arrow,invalid,left,right,401.335719042,right,1
SPC115,SPC,DZ,word_arrow,1,48,mask,visual_arrow,valid,right,right,899.404960055,right,1
SPC115,SPC,DZ,word_arrow,1,49,mask,visual_arrow,valid,left,left,378.880403052,left,1
SPC115,SPC,DZ,word_arrow,1,50,mask,visual_word,neutral,neutral,right,349.998719656,right,1
SPC115,SPC,DZ,word_arrow,1,51,mask,visual_arrow,valid,right,right,827.100404589,right,1
SPC115,SPC,DZ,word_arrow,1,52,mask,visual_word,valid,left,left,469.891106728,left,1
SPC115,SPC,DZ,word_arrow,1,53,mask,visual_arrow,invalid,left,right,389.698671002,right,1
SPC115,SPC,DZ,word_arrow,1,54,mask,visual_word,valid,left,left,391.473228003,left,1
SPC115,SPC,DZ,word_arrow,1,55,mask,visual_word,invalid,right,left,411.225097308,left,1
SPC115,SPC,DZ,word_arrow,1,56,mask,visual_word,neutral,neutral,right,486.666495955,right,1
SPC115,SPC,DZ,word_arrow,1,57,mask,visual_word,neutral,neutral,left,444.801482638,left,1
SPC115,SPC,DZ,word_arrow,1,58,mask,visual_arrow,valid,right,right,428.890005634,right,1
SPC115,SPC,DZ,word_arrow,1,59,mask,visual_word,valid,left,left,525.693626445,left,1
SPC115,SPC,DZ,word_arrow,1,60,mask,visual_arrow,valid,right,right,393.811136433,right,1
SPC115,SPC,DZ,word_arrow,1,61,mask,visual_arrow,neutral,neutral,left,525.596000207,left,1
SPC115,SPC,DZ,word_arrow,1,62,mask,visual_word,valid,right,right,386.714188775,right,1
SPC115,SPC,DZ,word_arrow,1,63,mask,visual_arrow,valid,right,right,367.486940489,right,1
SPC115,SPC,DZ,word_arrow,1,64,mask,visual_arrow,valid,right,right,427.27581174,right,1
SPC115,SPC,DZ,word_arrow,1,65,mask,visual_word,valid,right,right,478.030574621,right,1
SPC115,SPC,DZ,word_arrow,1,66,mask,visual_arrow,invalid,right,left,455.122656971,left,1
SPC115,SPC,DZ,word_arrow,1,67,mask,visual_word,valid,left,left,494.23813121,left,1
SPC115,SPC,DZ,word_arrow,1,68,mask,visual_word,neutral,neutral,right,412.997413703,right,1
SPC115,SPC,DZ,word_arrow,1,69,mask,visual_word,valid,left,left,804.452396806,right,0
SPC115,SPC,DZ,word_arrow,1,70,mask,visual_arrow,valid,right,right,565.726467277,right,1
SPC115,SPC,DZ,word_arrow,1,71,mask,visual_arrow,invalid,left,right,392.800944897,right,1
SPC115,SPC,DZ,word_arrow,1,72,mask,visual_arrow,valid,left,left,763.842440847,left,1
SPC115,SPC,DZ,word_arrow,1,73,mask,visual_arrow,valid,left,left,512.961243985,left,1
SPC115,SPC,DZ,word_arrow,1,74,mask,visual_arrow,valid,left,left,500.726275226,left,1
SPC115,SPC,DZ,word_arrow,1,75,mask,visual_arrow,valid,right,right,515.515210489,right,1
SPC115,SPC,DZ,word_arrow,1,76,mask,visual_word,invalid,right,left,449.965750791,left,1
SPC115,SPC,DZ,word_arrow,1,77,mask,visual_arrow,neutral,neutral,left,416.386804773,left,1
SPC115,SPC,DZ,word_arrow,1,78,mask,visual_arrow,valid,left,left,401.855538767,left,1
SPC115,SPC,DZ,word_arrow,1,79,mask,visual_arrow,valid,left,left,365.015236093,left,1
SPC115,SPC,DZ,word_arrow,1,80,mask,visual_word,valid,right,right,367.40947967,right,1
SPC115,SPC,DZ,word_arrow,1,81,mask,visual_word,invalid,left,right,395.508552698,right,1
SPC115,SPC,DZ,word_arrow,1,82,mask,visual_arrow,valid,right,right,366.981204548,right,1
SPC115,SPC,DZ,word_arrow,1,83,mask,visual_word,valid,left,left,403.085629419,left,1
SPC115,SPC,DZ,word_arrow,1,84,mask,visual_word,valid,left,left,421.841390966,left,1
SPC115,SPC,DZ,word_arrow,1,85,mask,visual_arrow,invalid,right,left,470.307858752,left,1
SPC115,SPC,DZ,word_arrow,1,86,mask,visual_arrow,valid,left,left,430.412654921,left,1
SPC115,SPC,DZ,word_arrow,1,87,mask,visual_arrow,neutral,neutral,left,446.182013722,left,1
SPC115,SPC,DZ,word_arrow,1,88,mask,visual_word,invalid,left,right,484.948274094,right,1
SPC115,SPC,DZ,word_arrow,1,89,mask,visual_arrow,invalid,right,left,466.406330019,left,1
SPC115,SPC,DZ,word_arrow,1,90,mask,visual_word,valid,right,right,432.905805079,right,1
SPC115,SPC,DZ,word_arrow,2,91,mask,visual_word,invalid,left,right,472.511651133,right,1
SPC115,SPC,DZ,word_arrow,2,92,mask,visual_arrow,neutral,neutral,right,383.221089829,right,1
SPC115,SPC,DZ,word_arrow,2,93,mask,visual_arrow,neutral,neutral,left,352.295016899,left,1
SPC115,SPC,DZ,word_arrow,2,94,mask,visual_word,valid,left,left,355.157226262,left,1
SPC115,SPC,DZ,word_arrow,2,95,mask,visual_arrow,invalid,right,left,391.591979926,left,1
SPC115,SPC,DZ,word_arrow,2,96,mask,visual_word,valid,right,right,392.710040458,right,1
SPC115,SPC,DZ,word_arrow,2,97,mask,visual_arrow,valid,right,right,524.475058894,right,1
SPC115,SPC,DZ,word_arrow,2,98,mask,visual_word,neutral,neutral,right,386.259026425,right,1
SPC115,SPC,DZ,word_arrow,2,99,mask,visual_word,valid,right,right,373.057717916,right,1
SPC115,SPC,DZ,word_arrow,2,100,mask,visual_arrow,invalid,right,left,374.503226467,left,1
SPC115,SPC,DZ,word_arrow,2,101,mask,visual_arrow,valid,left,left,528.838471782,left,1
SPC115,SPC,DZ,word_arrow,2,102,mask,visual_arrow,neutral,neutral,right,348.703011368,right,1
SPC115,SPC,DZ,word_arrow,2,103,mask,visual_word,valid,left,left,385.926136943,left,1
SPC115,SPC,DZ,word_arrow,2,104,mask,visual_word,valid,right,right,316.269333198,right,1
SPC115,SPC,DZ,word_arrow,2,105,mask,visual_word,valid,right,right,383.695137254,right,1
SPC115,SPC,DZ,word_arrow,2,106,mask,visual_word,valid,right,right,507.809459185,right,1
SPC115,SPC,DZ,word_arrow,2,107,mask,visual_word,neutral,neutral,right,443.590277067,right,1
SPC115,SPC,DZ,word_arrow,2,108,mask,visual_word,neutral,neutral,right,477.025504457,right,1
SPC115,SPC,DZ,word_arrow,2,109,mask,visual_arrow,invalid,right,left,397.142271842,left,1
SPC115,SPC,DZ,word_arrow,2,110,mask,visual_arrow,neutral,neutral,right,312.922513571,right,1
SPC115,SPC,DZ,word_arrow,2,111,mask,visual_word,valid,left,left,380.668083581,left,1
SPC115,SPC,DZ,word_arrow,2,112,mask,visual_word,valid,left,left,409.16086244,left,1
SPC115,SPC,DZ,word_arrow,2,113,mask,visual_word,valid,left,left,428.902488991,left,1
SPC115,SPC,DZ,word_arrow,2,114,mask,visual_arrow,valid,left,left,420.31938185,left,1
SPC115,SPC,DZ,word_arrow,2,115,mask,visual_arrow,neutral,neutral,left,423.512880261,left,1
SPC115,SPC,DZ,word_arrow,2,116,mask,visual_word,valid,left,left,448.591301341,left,1
SPC115,SPC,DZ,word_arrow,2,117,mask,visual_arrow,invalid,right,left,366.725135715,left,1
SPC115,SPC,DZ,word_arrow,2,118,mask,visual_word,valid,left,left,409.799114001,left,1
SPC115,SPC,DZ,word_arrow,2,119,mask,visual_arrow,valid,right,right,396.934536002,right,1
SPC115,SPC,DZ,word_arrow,2,120,mask,visual_arrow,neutral,neutral,right,478.688351428,right,1
SPC115,SPC,DZ,word_arrow,2,121,mask,visual_arrow,valid,right,right,367.461653692,right,1
SPC115,SPC,DZ,word_arrow,2,122,mask,visual_word,valid,left,left,482.928531186,left,1
SPC115,SPC,DZ,word_arrow,2,123,mask,visual_arrow,invalid,left,right,432.347895112,right,1
SPC115,SPC,DZ,word_arrow,2,124,mask,visual_word,neutral,neutral,right,482.895562327,right,1
SPC115,SPC,DZ,word_arrow,2,125,mask,visual_word,neutral,neutral,left,544.680170031,left,1
SPC115,SPC,DZ,word_arrow,2,126,mask,visual_arrow,valid,left,left,359.346832429,left,1
SPC115,SPC,DZ,word_arrow,2,127,mask,visual_word,valid,right,right,364.799818191,right,1
SPC115,SPC,DZ,word_arrow,2,128,mask,visual_word,valid,left,left,384.209195432,left,1
SPC115,SPC,DZ,word_arrow,2,129,mask,visual_arrow,neutral,neutral,left,436.029844823,left,1
SPC115,SPC,DZ,word_arrow,2,130,mask,visual_arrow,invalid,left,right,371.824426406,right,1
SPC115,SPC,DZ,word_arrow,2,131,mask,visual_word,invalid,left,right,488.527476187,right,1
SPC115,SPC,DZ,word_arrow,2,132,mask,visual_arrow,valid,right,right,847.695060431,right,1
SPC115,SPC,DZ,word_arrow,2,133,mask,visual_arrow,neutral,neutral,left,417.822390657,left,1
SPC115,SPC,DZ,word_arrow,2,134,mask,visual_arrow,valid,left,left,409.940912115,left,1
SPC115,SPC,DZ,word_arrow,2,135,mask,visual_word,valid,left,left,425.701948687,left,1
SPC115,SPC,DZ,word_arrow,2,136,mask,visual_arrow,valid,right,right,410.999756736,right,1
SPC115,SPC,DZ,word_arrow,2,137,mask,visual_arrow,valid,left,left,378.939939055,left,1
SPC115,SPC,DZ,word_arrow,2,138,mask,visual_arrow,valid,right,right,391.47354809,right,1
SPC115,SPC,DZ,word_arrow,2,139,mask,visual_word,valid,right,right,379.814414115,right,1
SPC115,SPC,DZ,word_arrow,2,140,mask,visual_word,invalid,left,right,382.254750075,right,1
SPC115,SPC,DZ,word_arrow,2,141,mask,visual_word,valid,left,left,367.307052136,left,1
SPC115,SPC,DZ,word_arrow,2,142,mask,visual_word,neutral,neutral,left,489.487094132,left,1
SPC115,SPC,DZ,word_arrow,2,143,mask,visual_word,invalid,left,right,385.607651337,right,1
SPC115,SPC,DZ,word_arrow,2,144,mask,visual_word,valid,left,left,382.368380622,left,1
SPC115,SPC,DZ,word_arrow,2,145,mask,visual_arrow,valid,left,left,407.16064478,left,1
SPC115,SPC,DZ,word_arrow,2,146,mask,visual_word,neutral,neutral,right,426.251856501,right,1
SPC115,SPC,DZ,word_arrow,2,147,mask,visual_word,invalid,left,right,473.13069753,right,1
SPC115,SPC,DZ,word_arrow,2,148,mask,visual_word,invalid,left,right,479.140312917,right,1
SPC115,SPC,DZ,word_arrow,2,149,mask,visual_word,valid,right,right,399.32525863,right,1
SPC115,SPC,DZ,word_arrow,2,150,mask,visual_arrow,invalid,right,left,351.853938337,left,1
SPC115,SPC,DZ,word_arrow,2,151,mask,visual_word,valid,right,right,756.137969885,right,1
SPC115,SPC,DZ,word_arrow,2,152,mask,visual_word,neutral,neutral,left,393.611402746,left,1
SPC115,SPC,DZ,word_arrow,2,153,mask,visual_word,valid,left,left,554.072774761,left,1
SPC115,SPC,DZ,word_arrow,2,154,mask,visual_arrow,invalid,left,right,375.176047321,right,1
SPC115,SPC,DZ,word_arrow,2,155,mask,visual_word,valid,right,right,411.286233739,right,1
SPC115,SPC,DZ,word_arrow,2,156,mask,visual_word,valid,right,right,438.05502919,right,1
SPC115,SPC,DZ,word_arrow,2,157,mask,visual_word,invalid,right,left,405.493636692,left,1
SPC115,SPC,DZ,word_arrow,2,158,mask,visual_word,invalid,right,left,413.935585886,left,1
SPC115,SPC,DZ,word_arrow,2,159,mask,visual_word,invalid,right,left,438.746094951,left,1
SPC115,SPC,DZ,word_arrow,2,160,mask,visual_word,valid,left,left,456.196225543,left,1
SPC115,SPC,DZ,word_arrow,2,161,mask,visual_word,neutral,neutral,left,362.308908636,left,1
SPC115,SPC,DZ,word_arrow,2,162,mask,visual_word,neutral,neutral,left,379.769922158,left,1
SPC115,SPC,DZ,word_arrow,2,163,mask,visual_arrow,invalid,left,right,493.464803341,right,1
SPC115,SPC,DZ,word_arrow,2,164,mask,visual_arrow,valid,left,left,362.341237324,left,1
SPC115,SPC,DZ,word_arrow,2,165,mask,visual_arrow,invalid,left,right,516.050394348,right,1
SPC115,SPC,DZ,word_arrow,2,166,mask,visual_word,invalid,right,left,593.531061149,left,1
SPC115,SPC,DZ,word_arrow,2,167,mask,visual_arrow,valid,left,left,529.969335756,left,1
SPC115,SPC,DZ,word_arrow,2,168,mask,visual_arrow,valid,left,left,367.421963027,left,1
SPC115,SPC,DZ,word_arrow,2,169,mask,visual_word,valid,right,right,392.870403564,right,1
SPC115,SPC,DZ,word_arrow,2,170,mask,visual_arrow,valid,right,right,361.3031983,right,1
SPC115,SPC,DZ,word_arrow,2,171,mask,visual_arrow,valid,left,left,411.853426202,left,1
SPC115,SPC,DZ,word_arrow,2,172,mask,visual_arrow,neutral,neutral,left,445.847843901,left,1
SPC115,SPC,DZ,word_arrow,2,173,mask,visual_arrow,valid,left,left,429.814414118,left,1
SPC115,SPC,DZ,word_arrow,3,174,mask,visual_word,invalid,left,right,382.329010037,right,1
SPC115,SPC,DZ,word_arrow,3,175,mask,visual_word,valid,right,right,417.424523712,right,1
SPC115,SPC,DZ,word_arrow,3,176,mask,visual_word,invalid,right,left,395.239360343,left,1
SPC115,SPC,DZ,word_arrow,3,177,mask,visual_arrow,valid,right,right,373.022828535,right,1
SPC115,SPC,DZ,word_arrow,3,178,mask,visual_arrow,invalid,left,right,352.452499232,right,1
SPC115,SPC,DZ,word_arrow,3,179,mask,visual_arrow,invalid,right,left,363.53835911,left,1
SPC115,SPC,DZ,word_arrow,3,180,mask,visual_arrow,valid,right,right,421.976787362,right,1
SPC115,SPC,DZ,word_arrow,3,181,mask,visual_word,valid,left,left,405.444983611,left,1
SPC115,SPC,DZ,word_arrow,3,182,mask,visual_word,valid,left,left,565.544018231,left,1
SPC115,SPC,DZ,word_arrow,3,183,mask,visual_word,valid,right,right,360.324375193,right,1
SPC115,SPC,DZ,word_arrow,3,184,mask,visual_word,valid,right,right,404.776323874,right,1
SPC115,SPC,DZ,word_arrow,3,185,mask,visual_word,valid,right,right,406.90873707,right,1
SPC115,SPC,DZ,word_arrow,3,186,mask,visual_word,invalid,left,right,433.998578821,right,1
SPC115,SPC,DZ,word_arrow,3,187,mask,visual_arrow,valid,right,right,364.74796425,right,1
SPC115,SPC,DZ,word_arrow,3,188,mask,visual_word,valid,right,right,368.877074157,right,1
SPC115,SPC,DZ,word_arrow,3,189,mask,visual_word,neutral,neutral,right,446.333094336,right,1
SPC115,SPC,DZ,word_arrow,3,190,mask,visual_word,neutral,neutral,left,476.458952166,left,1
SPC115,SPC,DZ,word_arrow,3,191,mask,visual_word,valid,right,right,379.534018746,right,1
SPC115,SPC,DZ,word_arrow,3,192,mask,visual_arrow,invalid,right,left,390.348125577,left,1
SPC115,SPC,DZ,word_arrow,3,193,mask,visual_arrow,invalid,right,left,458.373130699,left,1
SPC115,SPC,DZ,word_arrow,3,194,mask,visual_arrow,invalid,right,left,417.606972755,left,1
SPC115,SPC,DZ,word_arrow,3,195,mask,visual_arrow,invalid,right,left,410.771535389,left,1
SPC115,SPC,DZ,word_arrow,3,196,mask,visual_arrow,neutral,neutral,right,426.781598893,right,1
SPC115,SPC,DZ,word_arrow,3,197,mask,visual_word,valid,right,right,369.873822085,right,1
SPC115,SPC,DZ,word_arrow,3,198,mask,visual_arrow,valid,left,left,518.667737888,left,1
SPC115,SPC,DZ,word_arrow,3,199,mask,visual_arrow,invalid,right,left,413.081916417,right,0
SPC115,SPC,DZ,word_arrow,3,200,mask,visual_arrow,valid,left,left,405.876459594,left,1
SPC115,SPC,DZ,word_arrow,3,201,mask,visual_arrow,valid,left,left,439.334733179,left,1
SPC115,SPC,DZ,word_arrow,3,202,mask,visual_word,valid,left,left,537.092850562,left,1
SPC115,SPC,DZ,word_arrow,3,203,mask,visual_arrow,valid,left,left,454.563146573,left,1
SPC115,SPC,DZ,word_arrow,3,204,mask,visual_word,valid,left,left,390.05204599,left,1
SPC115,SPC,DZ,word_arrow,3,205,mask,visual_arrow,neutral,neutral,left,902.781867764,left,1
SPC115,SPC,DZ,word_arrow,3,206,mask,visual_word,invalid,right,left,350.246146165,left,1
SPC115,SPC,DZ,word_arrow,3,207,mask,visual_arrow,neutral,neutral,right,506.724047424,right,1
SPC115,SPC,DZ,word_arrow,3,208,mask,visual_arrow,neutral,neutral,right,494.811725392,right,1
SPC115,SPC,DZ,word_arrow,3,209,mask,visual_word,invalid,right,left,596.584361876,left,1
SPC115,SPC,DZ,word_arrow,3,210,mask,visual_word,valid,right,right,424.031099559,right,1
SPC115,SPC,DZ,word_arrow,3,211,mask,visual_arrow,neutral,neutral,right,536.46548192,right,1
SPC115,SPC,DZ,word_arrow,3,212,mask,visual_word,invalid,left,right,589.24222831,right,1
SPC115,SPC,DZ,word_arrow,3,213,mask,visual_word,valid,left,left,454.369814604,left,1
SPC115,SPC,DZ,word_arrow,3,214,mask,visual_word,valid,right,right,429.175842466,right,1
SPC115,SPC,DZ,word_arrow,3,215,mask,visual_word,neutral,neutral,right,429.589073545,right,1
SPC115,SPC,DZ,word_arrow,3,216,mask,visual_arrow,valid,right,right,381.623860492,right,1
SPC115,SPC,DZ,word_arrow,3,217,mask,visual_word,neutral,neutral,left,384.382041895,left,1
SPC115,SPC,DZ,word_arrow,3,218,mask,visual_word,valid,left,left,403.961384818,left,1
SPC115,SPC,DZ,word_arrow,3,219,mask,visual_word,invalid,left,right,405.04327563,right,1
SPC115,SPC,DZ,word_arrow,3,220,mask,visual_word,valid,right,right,439.187173513,right,1
SPC115,SPC,DZ,word_arrow,3,221,mask,visual_arrow,valid,left,left,432.284838163,left,1
SPC115,SPC,DZ,word_arrow,3,222,mask,visual_arrow,valid,right,right,367.715802007,right,1
SPC115,SPC,DZ,word_arrow,3,223,mask,visual_arrow,invalid,left,right,818.484328585,right,1
SPC115,SPC,DZ,word_arrow,3,224,mask,visual_word,valid,left,left,443.95677558,left,1
SPC115,SPC,DZ,word_arrow,3,225,mask,visual_word,invalid,right,left,485.069266619,left,1
SPC115,SPC,DZ,word_arrow,3,226,mask,visual_word,valid,left,left,388.707044454,left,1
SPC115,SPC,DZ,word_arrow,3,227,mask,visual_word,valid,left,left,421.964624089,left,1
SPC115,SPC,DZ,word_arrow,3,228,mask,visual_word,invalid,right,left,424.069829973,left,1
SPC115,SPC,DZ,word_arrow,3,229,mask,visual_arrow,valid,left,left,464.183972654,left,1
SPC115,SPC,DZ,word_arrow,3,230,mask,visual_arrow,invalid,left,right,392.986914885,right,1
SPC115,SPC,DZ,word_arrow,3,231,mask,visual_word,neutral,neutral,right,458.093695583,right,1
SPC115,SPC,DZ,word_arrow,3,232,mask,visual_arrow,neutral,neutral,left,659.188389836,left,1
SPC115,SPC,DZ,word_arrow,3,233,mask,visual_word,invalid,left,right,483.000870634,right,1
SPC115,SPC,DZ,word_arrow,3,234,mask,visual_word,neutral,neutral,left,435.784658916,left,1
SPC115,SPC,DZ,word_arrow,3,235,mask,visual_arrow,neutral,neutral,right,397.862145346,right,1
SPC115,SPC,DZ,word_arrow,3,236,mask,visual_arrow,valid,right,right,776.637240087,right,1
SPC115,SPC,DZ,word_arrow,3,237,mask,visual_arrow,valid,right,right,376.110698555,right,1
SPC115,SPC,DZ,word_arrow,3,238,mask,visual_word,valid,left,left,540.907956056,left,1
SPC115,SPC,DZ,word_arrow,3,239,mask,visual_word,neutral,neutral,right,438.870928505,right,1
SPC115,SPC,DZ,word_arrow,3,240,mask,visual_word,invalid,left,right,486.42771177,right,1
SPC115,SPC,DZ,word_arrow,3,241,mask,visual_word,valid,right,right,469.231089319,right,1
SPC115,SPC,DZ,word_arrow,3,242,mask,visual_word,valid,right,right,339.371222984,right,1
SPC115,SPC,DZ,word_arrow,3,243,mask,visual_word,invalid,right,left,462.791278296,left,1
SPC115,SPC,DZ,word_arrow,3,244,mask,visual_arrow,invalid,left,right,444.924395677,right,1
SPC115,SPC,DZ,word_arrow,3,245,mask,visual_word,valid,right,right,381.350827101,right,1
SPC115,SPC,DZ,word_arrow,3,246,mask,visual_word,neutral,neutral,right,352.145856807,right,1
SPC115,SPC,DZ,word_arrow,3,247,mask,visual_word,valid,right,right,620.901938441,right,1
SPC115,SPC,DZ,word_arrow,3,248,mask,visual_word,neutral,neutral,right,381.737170952,right,1
SPC115,SPC,DZ,word_arrow,3,249,mask,visual_arrow,valid,right,right,398.467107956,right,1
SPC115,SPC,DZ,word_arrow,3,250,mask,visual_word,invalid,right,left,359.238323261,left,1
SPC115,SPC,DZ,word_arrow,3,251,mask,visual_word,valid,left,left,452.708247976,left,1
SPC115,SPC,DZ,word_arrow,3,252,mask,visual_arrow,valid,left,left,726.130223804,right,0
SPC115,SPC,DZ,word_arrow,4,253,mask,visual_arrow,valid,right,right,392.939862235,right,1
SPC115,SPC,DZ,word_arrow,4,254,mask,visual_arrow,invalid,left,right,370.699964151,right,1
SPC115,SPC,DZ,word_arrow,4,255,mask,visual_arrow,neutral,neutral,right,336.181245522,right,1
SPC115,SPC,DZ,word_arrow,4,256,mask,visual_arrow,valid,right,right,339.561994264,right,1
SPC115,SPC,DZ,word_arrow,4,257,mask,visual_arrow,neutral,neutral,right,320.705725699,right,1
SPC115,SPC,DZ,word_arrow,4,258,mask,visual_arrow,invalid,right,left,356.215430707,left,1
SPC115,SPC,DZ,word_arrow,4,259,mask,visual_arrow,valid,right,right,350.258309434,right,1
SPC115,SPC,DZ,word_arrow,4,260,mask,visual_word,valid,right,right,321.693831302,right,1
SPC115,SPC,DZ,word_arrow,4,261,mask,visual_arrow,valid,left,left,456.052506914,left,1
SPC115,SPC,DZ,word_arrow,4,262,mask,visual_word,neutral,neutral,left,421.92909454,left,1
SPC115,SPC,DZ,word_arrow,4,263,mask,visual_arrow,neutral,neutral,left,737.355961282,right,0
SPC115,SPC,DZ,word_arrow,4,264,mask,visual_arrow,valid,left,left,389.486453958,left,1
SPC115,SPC,DZ,word_arrow,4,265,mask,visual_word,neutral,neutral,right,358.609994368,right,1
SPC115,SPC,DZ,word_arrow,4,266,mask,visual_arrow,valid,right,right,330.375204856,right,1
SPC115,SPC,DZ,word_arrow,4,267,mask,visual_arrow,valid,right,right,359.484149336,right,1
SPC115,SPC,DZ,word_arrow,4,268,mask,visual_word,valid,right,right,457.89460207,right,1
SPC115,SPC,DZ,word_arrow,4,269,mask,visual_word,invalid,right,left,409.867612412,left,1
SPC115,SPC,DZ,word_arrow,4,270,mask,visual_word,neutral,neutral,right,337.78295606,right,1
SPC115,SPC,DZ,word_arrow,4,271,mask,visual_arrow,invalid,left,right,399.919338317,right,1
SPC115,SPC,DZ,word_arrow,4,272,mask,visual_word,valid,left,left,714.71819625,left,1
SPC115,SPC,DZ,word_arrow,4,273,mask,visual_word,invalid,left,right,377.842684116,right,1
SPC115,SPC,DZ,word_arrow,4,274,mask,visual_word,valid,left,left,413.598535284,left,1
SPC115,SPC,DZ,word_arrow,4,275,mask,visual_word,neutral,neutral,left,461.064734201,left,1
SPC115,SPC,DZ,word_arrow,4,276,mask,visual_arrow,neutral,neutral,left,429.557705113,left,1
SPC115,SPC,DZ,word_arrow,4,277,mask,visual_word,valid,left,left,765.619238453,right,0
SPC115,SPC,DZ,word_arrow,4,278,mask,visual_word,valid,left,left,402.737695895,left,1
SPC115,SPC,DZ,word_arrow,4,279,mask,visual_arrow,valid,left,left,388.176341799,left,1
SPC115,SPC,DZ,word_arrow,4,280,mask,visual_arrow,neutral,neutral,right,384.280254533,right,1
SPC115,SPC,DZ,word_arrow,4,281,mask,visual_arrow,neutral,neutral,left,368.782648777,left,1
SPC115,SPC,DZ,word_arrow,4,282,mask,visual_arrow,neutral,neutral,right,412.184395165,right,1
SPC115,SPC,DZ,word_arrow,4,283,mask,visual_arrow,valid,right,right,451.559459183,right,1
SPC115,SPC,DZ,word_arrow,4,284,mask,visual_arrow,invalid,left,right,477.270370273,right,1
SPC115,SPC,DZ,word_arrow,4,285,mask,visual_word,neutral,neutral,left,733.827332788,left,1
SPC115,SPC,DZ,word_arrow,4,286,mask,visual_arrow,valid,right,right,330.638955751,right,1
SPC115,SPC,DZ,word_arrow,4,287,mask,visual_arrow,neutral,neutral,right,366.428736044,right,1
SPC115,SPC,DZ,word_arrow,4,288,mask,visual_word,valid,right,right,563.497388099,right,1
SPC115,SPC,DZ,word_arrow,4,289,mask,visual_arrow,valid,right,right,429.609559051,right,1
SPC115,SPC,DZ,word_arrow,4,290,mask,visual_word,valid,right,right,775.413871248,right,1
SPC115,SPC,DZ,word_arrow,4,291,mask,visual_word,invalid,right,left,393.233381132,left,1
SPC115,SPC,DZ,word_arrow,4,292,mask,visual_word,invalid,left,right,357.147521252,right,1
SPC115,SPC,DZ,word_arrow,4,293,mask,visual_word,valid,right,right,439.763968556,right,1
SPC115,SPC,DZ,word_arrow,4,294,mask,visual_word,neutral,neutral,left,454.570828639,left,1
SPC115,SPC,DZ,word_arrow,4,295,mask,visual_arrow,invalid,right,left,437.45966916,left,1
SPC115,SPC,DZ,word_arrow,4,296,mask,visual_arrow,invalid,left,right,392.100276553,right,1
SPC115,SPC,DZ,word_arrow,4,297,mask,visual_word,neutral,neutral,left,434.20855526,left,1
SPC115,SPC,DZ,word_arrow,4,298,mask,visual_arrow,valid,right,right,329.989181089,right,1
SPC115,SPC,DZ,word_arrow,4,299,mask,visual_arrow,invalid,left,right,399.439209261,right,1
SPC115,SPC,DZ,word_arrow,4,300,mask,visual_word,neutral,neutral,right,394.231409402,right,1
SPC115,SPC,DZ,word_arrow,4,301,mask,visual_word,neutral,neutral,left,404.999423845,left,1
SPC115,SPC,DZ,word_arrow,4,302,mask,visual_arrow,neutral,neutral,right,336.76316194,right,1
SPC115,SPC,DZ,word_arrow,4,303,mask,visual_word,valid,right,right,339.511740756,right,1
SPC115,SPC,DZ,word_arrow,4,304,mask,visual_word,neutral,neutral,left,547.305515724,left,1
SPC115,SPC,DZ,word_arrow,4,305,mask,visual_arrow,invalid,right,left,382.085104477,left,1
SPC115,SPC,DZ,word_arrow,4,306,mask,visual_word,neutral,neutral,right,586.860148007,right,1
SPC115,SPC,DZ,word_arrow,4,307,mask,visual_arrow,neutral,neutral,left,421.199938544,left,1
SPC115,SPC,DZ,word_arrow,4,308,mask,visual_arrow,valid,right,right,566.645114206,right,1
SPC115,SPC,DZ,word_arrow,4,309,mask,visual_arrow,neutral,neutral,right,387.584822802,right,1
SPC115,SPC,DZ,word_arrow,4,310,mask,visual_word,valid,right,right,356.336423229,right,1
SPC115,SPC,DZ,word_arrow,4,311,mask,visual_arrow,valid,left,left,422.135870122,left,1
SPC115,SPC,DZ,word_arrow,4,312,mask,visual_arrow,neutral,neutral,left,344.891106728,right,0
SPC115,SPC,DZ,word_arrow,4,313,mask,visual_word,neutral,neutral,right,405.397930965,right,1
SPC115,SPC,DZ,word_arrow,4,314,mask,visual_word,valid,right,right,368.109827923,right,1
SPC115,SPC,DZ,word_arrow,4,315,mask,visual_arrow,valid,right,right,402.421130799,right,1
SPC115,SPC,DZ,word_arrow,4,316,mask,visual_arrow,neutral,neutral,left,428.329855065,left,1
SPC115,SPC,DZ,word_arrow,4,317,mask,visual_arrow,valid,left,left,438.233317116,left,1
SPC115,SPC,DZ,word_arrow,4,318,mask,visual_arrow,invalid,left,right,399.212588341,right,1
SPC115,SPC,DZ,word_arrow,4,319,mask,visual_arrow,valid,right,right,384.317384513,right,1
SPC115,SPC,DZ,word_arrow,4,320,mask,visual_arrow,valid,left,left,425.124833557,left,1
SPC115,SPC,DZ,word_arrow,4,321,mask,visual_arrow,valid,right,right,513.882451603,right,1
SPC115,SPC,DZ,word_arrow,4,322,mask,visual_arrow,valid,left,left,342.317935061,left,1
SPC115,SPC,DZ,word_arrow,4,323,mask,visual_word,valid,left,left,427.453459492,left,1
SPC115,SPC,DZ,word_arrow,4,324,mask,visual_arrow,valid,left,left,428.877842362,left,1
SPC115,SPC,DZ,word_arrow,4,325,mask,visual_word,neutral,neutral,left,351.327396802,left,1
SPC115,SPC,DZ,word_arrow,4,326,mask,visual_word,invalid,right,left,395.735813789,left,1
SPC115,SPC,DZ,word_arrow,4,327,mask,visual_word,neutral,neutral,left,415.345884972,left,1
SPC115,SPC,DZ,word_arrow,4,328,mask,visual_arrow,neutral,neutral,left,369.341198915,left,1
SPC115,SPC,DZ,word_arrow,4,329,mask,visual_word,invalid,right,left,510.754250743,left,1
SPC115,SPC,DZ,word_arrow,4,330,mask,visual_word,valid,right,right,389.549190822,right,1
SPC115,SPC,DZ,word_arrow,4,331,mask,visual_word,neutral,neutral,right,472.997221652,right,1
SPC115,SPC,DZ,word_arrow,4,332,mask,visual_word,invalid,right,left,360.45048909,left,1
SPC115,SPC,DZ,word_arrow,4,333,mask,visual_word,invalid,left,right,380.885422001,right,1
SPC115,SPC,DZ,word_arrow,4,334,mask,visual_arrow,invalid,left,right,518.332287716,right,1
SPC115,SPC,DZ,word_arrow,4,335,mask,visual_arrow,invalid,right,left,386.091301341,left,1
