subj_id,sona_experiment_code,experimenter,cue_contrast,block,trial,mask_type,cue_type,cue_validity,cue_dir,target_loc,rt,response_type,is_correct
SPC109,SPC,DZ,word_arrow,0,0,mask,visual_word,invalid,left,right,1120.31624606,right,1
SPC109,SPC,DZ,word_arrow,0,1,mask,visual_word,valid,left,left,1284.43448618,left,1
SPC109,SPC,DZ,word_arrow,0,2,mask,visual_arrow,valid,right,right,961.540579097,right,1
SPC109,SPC,DZ,word_arrow,0,3,mask,visual_word,neutral,neutral,left,638.660755707,left,1
SPC109,SPC,DZ,word_arrow,0,4,mask,visual_word,valid,left,left,685.068898834,left,1
SPC109,SPC,DZ,word_arrow,0,5,mask,visual_word,valid,right,right,682.81868659,right,1
SPC109,SPC,DZ,word_arrow,0,6,mask,visual_arrow,valid,left,left,640.560792526,left,1
SPC109,SPC,DZ,word_arrow,0,7,mask,visual_arrow,invalid,right,left,673.662916292,left,1
SPC109,SPC,DZ,word_arrow,0,8,mask,visual_arrow,neutral,neutral,left,607.707696501,left,1
SPC109,SPC,DZ,word_arrow,0,9,mask,visual_arrow,neutral,neutral,right,568.501832429,right,1
SPC109,SPC,DZ,word_arrow,0,10,mask,visual_word,neutral,neutral,right,533.556967508,right,1
SPC109,SPC,DZ,word_arrow,0,11,mask,visual_arrow,invalid,left,right,627.640158171,right,1
SPC109,SPC,DZ,word_arrow,0,12,mask,visual_arrow,valid,right,right,578.785909805,right,1
SPC109,SPC,DZ,word_arrow,0,13,mask,visual_word,valid,right,right,478.819839074,right,1
SPC109,SPC,DZ,word_arrow,0,14,mask,visual_word,invalid,right,left,509.58724774,left,1
SPC109,SPC,DZ,word_arrow,0,15,mask,visual_arrow,valid,left,left,538.662036066,left,1
SPC109,SPC,DZ,word_arrow,1,16,mask,visual_arrow,valid,left,left,714.330297895,left,1
SPC109,SPC,DZ,word_arrow,1,17,mask,visual_word,invalid,right,left,566.132228007,left,1
SPC109,SPC,DZ,word_arrow,1,18,mask,visual_word,neutral,neutral,left,586.52017347,left,1
SPC109,SPC,DZ,word_arrow,1,19,mask,visual_arrow,invalid,left,right,541.254101205,right,1
SPC109,SPC,DZ,word_arrow,1,20,mask,visual_word,valid,left,left,514.69071582,left,1
SPC109,SPC,DZ,word_arrow,1,21,mask,visual_arrow,valid,right,right,502.417297452,right,1
SPC109,SPC,DZ,word_arrow,1,22,mask,visual_arrow,valid,left,left,483.545604511,left,1
SPC109,SPC,DZ,word_arrow,1,23,mask,visual_arrow,valid,right,right,458.976681693,right,1
SPC109,SPC,DZ,word_arrow,1,24,mask,visual_word,invalid,right,left,378.015460214,left,1
SPC109,SPC,DZ,word_arrow,1,25,mask,visual_word,valid,left,left,443.732855259,left,1
SPC109,SPC,DZ,word_arrow,1,26,mask,visual_arrow,neutral,neutral,left,410.140358261,left,1
SPC109,SPC,DZ,word_arrow,1,27,mask,visual_arrow,invalid,right,left,347.868060111,left,1
SPC109,SPC,DZ,word_arrow,1,28,mask,visual_word,valid,left,left,352.00998676,left,1
SPC109,SPC,DZ,word_arrow,1,29,mask,visual_word,neutral,neutral,right,442.392650875,right,1
SPC109,SPC,DZ,word_arrow,1,30,mask,visual_arrow,neutral,neutral,left,388.80559511,left,1
SPC109,SPC,DZ,word_arrow,1,31,mask,visual_word,invalid,left,right,366.851143539,right,1
SPC109,SPC,DZ,word_arrow,1,32,mask,visual_arrow,invalid,left,right,456.979338429,right,1
SPC109,SPC,DZ,word_arrow,1,33,mask,visual_arrow,valid,left,left,473.414848791,left,1
SPC109,SPC,DZ,word_arrow,1,34,mask,visual_arrow,valid,right,right,400.756365736,right,1
SPC109,SPC,DZ,word_arrow,1,35,mask,visual_word,invalid,right,left,465.830065776,left,1
SPC109,SPC,DZ,word_arrow,1,36,mask,visual_word,valid,left,left,387.294464046,left,1
SPC109,SPC,DZ,word_arrow,1,37,mask,visual_word,invalid,left,right,396.38013544,right,1
SPC109,SPC,DZ,word_arrow,1,38,mask,visual_arrow,neutral,neutral,right,406.074612285,right,1
SPC109,SPC,DZ,word_arrow,1,39,mask,visual_arrow,valid,right,right,406.132227974,right,1
SPC109,SPC,DZ,word_arrow,1,40,mask,visual_arrow,neutral,neutral,right,407.885024673,right,1
SPC109,SPC,DZ,word_arrow,1,41,mask,visual_arrow,invalid,left,right,439.965750789,right,1
SPC109,SPC,DZ,word_arrow,1,42,mask,visual_word,neutral,neutral,left,409.080229816,left,1
SPC109,SPC,DZ,word_arrow,1,43,mask,visual_arrow,invalid,left,right,363.196709426,right,1
SPC109,SPC,DZ,word_arrow,1,44,mask,visual_arrow,valid,left,left,399.234351818,left,1
SPC109,SPC,DZ,word_arrow,1,45,mask,visual_word,valid,right,right,337.299425504,right,1
SPC109,SPC,DZ,word_arrow,1,46,mask,visual_arrow,invalid,right,left,351.01067496,left,1
SPC109,SPC,DZ,word_arrow,1,47,mask,visual_arrow,neutral,neutral,right,339.765056036,right,1
SPC109,SPC,DZ,word_arrow,1,48,mask,visual_word,invalid,left,right,434.162892285,right,1
SPC109,SPC,DZ,word_arrow,1,49,mask,visual_word,valid,left,left,388.918905868,left,1
SPC109,SPC,DZ,word_arrow,1,50,mask,visual_word,valid,right,right,413.675719756,right,1
SPC109,SPC,DZ,word_arrow,1,51,mask,visual_arrow,invalid,left,right,457.387769478,right,1
SPC109,SPC,DZ,word_arrow,1,52,mask,visual_arrow,valid,left,left,415.50597758,left,1
SPC109,SPC,DZ,word_arrow,1,53,mask,visual_arrow,invalid,left,right,392.596066114,right,1
SPC109,SPC,DZ,word_arrow,1,54,mask,visual_arrow,valid,right,right,411.324360175,right,1
SPC109,SPC,DZ,word_arrow,1,55,mask,visual_arrow,neutral,neutral,left,430.402189377,left,1
SPC109,SPC,DZ,word_arrow,1,56,mask,visual_arrow,valid,right,right,424.813789316,right,1
SPC109,SPC,DZ,word_arrow,1,57,mask,visual_word,valid,right,right,402.190675843,right,1
SPC109,SPC,DZ,word_arrow,1,58,mask,visual_arrow,neutral,neutral,right,426.955811912,right,1
SPC109,SPC,DZ,word_arrow,1,59,mask,visual_arrow,valid,left,left,474.048621254,left,1
SPC109,SPC,DZ,word_arrow,1,60,mask,visual_word,valid,left,left,431.776643265,left,1
SPC109,SPC,DZ,word_arrow,1,61,mask,visual_word,invalid,left,right,385.863994947,right,1
SPC109,SPC,DZ,word_arrow,1,62,mask,visual_word,valid,right,right,492.330073728,right,1
SPC109,SPC,DZ,word_arrow,1,63,mask,visual_word,valid,left,left,484.047821024,left,1
SPC109,SPC,DZ,word_arrow,1,64,mask,visual_word,valid,right,right,385.816942202,right,1
SPC109,SPC,DZ,word_arrow,1,65,mask,visual_arrow,valid,left,left,382.491877885,left,1
SPC109,SPC,DZ,word_arrow,1,66,mask,visual_arrow,valid,right,right,394.58508708,right,1
SPC109,SPC,DZ,word_arrow,1,67,mask,visual_word,invalid,right,left,395.37122089,left,1
SPC109,SPC,DZ,word_arrow,1,68,mask,visual_word,neutral,neutral,right,581.718547386,right,1
SPC109,SPC,DZ,word_arrow,1,69,mask,visual_word,valid,right,right,406.485604122,right,1
SPC109,SPC,DZ,word_arrow,1,70,mask,visual_arrow,invalid,left,right,497.545572463,right,1
SPC109,SPC,DZ,word_arrow,1,71,mask,visual_arrow,invalid,left,right,607.649120619,right,1
SPC109,SPC,DZ,word_arrow,1,72,mask,visual_word,invalid,left,right,810.760366847,right,1
SPC109,SPC,DZ,word_arrow,1,73,mask,visual_word,neutral,neutral,left,412.16714948,left,1
SPC109,SPC,DZ,word_arrow,1,74,mask,visual_arrow,valid,left,left,527.876062319,left,1
SPC109,SPC,DZ,word_arrow,1,75,mask,visual_arrow,neutral,neutral,left,434.998319484,left,1
SPC109,SPC,DZ,word_arrow,1,76,mask,visual_arrow,neutral,neutral,right,420.702271047,right,1
SPC109,SPC,DZ,word_arrow,1,77,mask,visual_arrow,valid,right,right,575.794696109,right,1
SPC109,SPC,DZ,word_arrow,1,78,mask,visual_word,valid,right,right,412.536529941,right,1
SPC109,SPC,DZ,word_arrow,1,79,mask,visual_word,valid,right,right,413.951954921,right,1
SPC109,SPC,DZ,word_arrow,1,80,mask,visual_word,neutral,neutral,right,391.397660132,right,1
SPC109,SPC,DZ,word_arrow,1,81,mask,visual_arrow,neutral,neutral,right,407.779396046,right,1
SPC109,SPC,DZ,word_arrow,1,82,mask,visual_word,neutral,neutral,right,385.852151783,right,1
SPC109,SPC,DZ,word_arrow,1,83,mask,visual_arrow,invalid,right,left,550.580477924,left,1
SPC109,SPC,DZ,word_arrow,1,84,mask,visual_word,neutral,neutral,right,388.666677289,right,1
SPC109,SPC,DZ,word_arrow,1,85,mask,visual_arrow,valid,right,right,376.110622077,right,1
SPC109,SPC,DZ,word_arrow,1,86,mask,visual_word,valid,right,right,434.528111597,right,1
SPC109,SPC,DZ,word_arrow,1,87,mask,visual_word,valid,right,right,475.905766361,right,1
SPC109,SPC,DZ,word_arrow,1,88,mask,visual_arrow,valid,left,left,428.024262656,left,1
SPC109,SPC,DZ,word_arrow,1,89,mask,visual_word,neutral,neutral,left,476.393259014,left,1
SPC109,SPC,DZ,word_arrow,1,90,mask,visual_arrow,valid,left,left,412.11369494,left,1
SPC109,SPC,DZ,word_arrow,1,91,mask,visual_word,neutral,neutral,left,406.527215498,left,1
SPC109,SPC,DZ,word_arrow,1,92,mask,visual_word,valid,right,right,473.644351237,right,1
SPC109,SPC,DZ,word_arrow,1,93,mask,visual_arrow,neutral,neutral,left,383.08852003,left,1
SPC109,SPC,DZ,word_arrow,1,94,mask,visual_word,valid,right,right,490.45628414,right,1
SPC109,SPC,DZ,word_arrow,1,95,mask,visual_arrow,valid,left,left,362.863498856,left,1
SPC109,SPC,DZ,word_arrow,1,96,mask,visual_arrow,valid,right,right,454.92213883,right,1
SPC109,SPC,DZ,word_arrow,1,97,mask,visual_word,valid,left,left,326.685978565,left,1
SPC109,SPC,DZ,word_arrow,1,98,mask,visual_arrow,valid,left,left,372.793559916,left,1
SPC109,SPC,DZ,word_arrow,1,99,mask,visual_arrow,neutral,neutral,right,374.51146706,right,1
SPC109,SPC,DZ,word_arrow,1,100,mask,visual_arrow,valid,left,left,344.589088229,left,1
SPC109,SPC,DZ,word_arrow,1,101,mask,visual_arrow,valid,right,right,419.312132872,right,1
SPC109,SPC,DZ,word_arrow,1,102,mask,visual_arrow,valid,right,right,430.3874654,right,1
SPC109,SPC,DZ,word_arrow,2,103,mask,visual_word,valid,left,left,500.35593682,left,1
SPC109,SPC,DZ,word_arrow,2,104,mask,visual_word,invalid,right,left,489.142006612,left,1
SPC109,SPC,DZ,word_arrow,2,105,mask,visual_arrow,invalid,left,right,361.473360797,right,1
SPC109,SPC,DZ,word_arrow,2,106,mask,visual_word,neutral,neutral,right,398.949154187,right,1
SPC109,SPC,DZ,word_arrow,2,107,mask,visual_arrow,valid,left,left,369.3644671,left,1
SPC109,SPC,DZ,word_arrow,2,108,mask,visual_arrow,valid,left,left,413.783589029,left,1
SPC109,SPC,DZ,word_arrow,2,109,mask,visual_word,invalid,left,right,341.532896971,right,1
SPC109,SPC,DZ,word_arrow,2,110,mask,visual_arrow,invalid,left,right,355.964022223,right,1
SPC109,SPC,DZ,word_arrow,2,111,mask,visual_word,valid,right,right,574.69839789,right,1
SPC109,SPC,DZ,word_arrow,2,112,mask,visual_word,neutral,neutral,right,379.446889507,right,1
SPC109,SPC,DZ,word_arrow,2,113,mask,visual_arrow,neutral,neutral,left,364.830433857,left,1
SPC109,SPC,DZ,word_arrow,2,114,mask,visual_arrow,invalid,left,right,329.880447476,right,1
SPC109,SPC,DZ,word_arrow,2,115,mask,visual_arrow,valid,right,right,325.960341259,right,1
SPC109,SPC,DZ,word_arrow,2,116,mask,visual_word,neutral,neutral,right,369.056863477,right,1
SPC109,SPC,DZ,word_arrow,2,117,mask,visual_word,valid,left,left,364.455932053,left,1
SPC109,SPC,DZ,word_arrow,2,118,mask,visual_word,valid,right,right,352.191476151,right,1
SPC109,SPC,DZ,word_arrow,2,119,mask,visual_word,valid,left,left,420.252228621,left,1
SPC109,SPC,DZ,word_arrow,2,120,mask,visual_word,valid,left,left,356.998223462,left,1
SPC109,SPC,DZ,word_arrow,2,121,mask,visual_word,neutral,neutral,left,424.841316883,left,1
SPC109,SPC,DZ,word_arrow,2,122,mask,visual_arrow,valid,right,right,360.191412037,right,1
SPC109,SPC,DZ,word_arrow,2,123,mask,visual_arrow,invalid,left,right,379.931501346,right,1
SPC109,SPC,DZ,word_arrow,2,124,mask,visual_arrow,neutral,neutral,right,373.99356626,right,1
SPC109,SPC,DZ,word_arrow,2,125,mask,visual_word,invalid,right,left,411.068610614,left,1
SPC109,SPC,DZ,word_arrow,2,126,mask,visual_arrow,valid,right,right,356.507209945,right,1
SPC109,SPC,DZ,word_arrow,2,127,mask,visual_word,valid,left,left,408.913464402,left,1
SPC109,SPC,DZ,word_arrow,2,128,mask,visual_arrow,neutral,neutral,right,506.30251423,right,1
SPC109,SPC,DZ,word_arrow,2,129,mask,visual_word,invalid,right,left,361.349487095,left,1
SPC109,SPC,DZ,word_arrow,2,130,mask,visual_arrow,invalid,right,left,315.110990196,left,1
SPC109,SPC,DZ,word_arrow,2,131,mask,visual_word,invalid,left,right,329.576364718,right,1
SPC109,SPC,DZ,word_arrow,2,132,mask,visual_word,valid,right,right,389.260758879,right,1
SPC109,SPC,DZ,word_arrow,2,133,mask,visual_arrow,valid,left,left,360.697149648,left,1
SPC109,SPC,DZ,word_arrow,2,134,mask,visual_word,neutral,neutral,right,380.108829588,right,1
SPC109,SPC,DZ,word_arrow,2,135,mask,visual_word,invalid,left,right,375.159643358,right,1
SPC109,SPC,DZ,word_arrow,2,136,mask,visual_word,valid,right,right,362.958564772,right,1
SPC109,SPC,DZ,word_arrow,2,137,mask,visual_arrow,neutral,neutral,left,356.985420105,left,1
SPC109,SPC,DZ,word_arrow,2,138,mask,visual_word,invalid,right,left,415.378903155,left,1
SPC109,SPC,DZ,word_arrow,2,139,mask,visual_arrow,valid,right,right,322.103932267,right,1
SPC109,SPC,DZ,word_arrow,2,140,mask,visual_word,neutral,neutral,right,383.196709561,right,1
SPC109,SPC,DZ,word_arrow,2,141,mask,visual_arrow,neutral,neutral,left,353.951314697,left,1
SPC109,SPC,DZ,word_arrow,2,142,mask,visual_word,valid,left,left,510.711393552,left,1
SPC109,SPC,DZ,word_arrow,2,143,mask,visual_arrow,invalid,left,right,340.753164841,right,1
SPC109,SPC,DZ,word_arrow,2,144,mask,visual_arrow,valid,left,left,353.54224348,left,1
SPC109,SPC,DZ,word_arrow,2,145,mask,visual_word,invalid,left,right,316.249539959,right,1
SPC109,SPC,DZ,word_arrow,2,146,mask,visual_word,valid,right,right,480.67570373,right,1
SPC109,SPC,DZ,word_arrow,2,147,mask,visual_arrow,invalid,right,left,353.12292946,left,1
SPC109,SPC,DZ,word_arrow,2,148,mask,visual_word,neutral,neutral,left,364.130723523,left,1
SPC109,SPC,DZ,word_arrow,2,149,mask,visual_arrow,invalid,right,left,383.914024569,left,1
SPC109,SPC,DZ,word_arrow,2,150,mask,visual_arrow,valid,left,left,378.298737342,left,1
SPC109,SPC,DZ,word_arrow,2,151,mask,visual_arrow,invalid,right,left,420.046092477,left,1
SPC109,SPC,DZ,word_arrow,2,152,mask,visual_word,valid,left,left,317.838452058,left,1
SPC109,SPC,DZ,word_arrow,2,153,mask,visual_word,valid,right,right,378.503592918,right,1
SPC109,SPC,DZ,word_arrow,2,154,mask,visual_word,valid,left,left,364.921658649,left,1
SPC109,SPC,DZ,word_arrow,2,155,mask,visual_word,valid,left,left,455.352335819,left,1
SPC109,SPC,DZ,word_arrow,2,156,mask,visual_word,invalid,left,right,343.678440549,right,1
SPC109,SPC,DZ,word_arrow,2,157,mask,visual_arrow,neutral,neutral,right,396.18360193,right,1
SPC109,SPC,DZ,word_arrow,2,158,mask,visual_arrow,invalid,left,right,424.638701719,right,1
SPC109,SPC,DZ,word_arrow,2,159,mask,visual_word,neutral,neutral,left,408.99796749,left,1
SPC109,SPC,DZ,word_arrow,2,160,mask,visual_arrow,neutral,neutral,left,409.4348863,left,1
SPC109,SPC,DZ,word_arrow,2,161,mask,visual_arrow,invalid,right,left,425.182209583,left,1
SPC109,SPC,DZ,word_arrow,2,162,mask,visual_word,invalid,left,right,360.597282415,right,1
SPC109,SPC,DZ,word_arrow,2,163,mask,visual_word,invalid,right,left,396.282188711,left,1
SPC109,SPC,DZ,word_arrow,2,164,mask,visual_word,valid,right,right,381.401341059,right,1
SPC109,SPC,DZ,word_arrow,2,165,mask,visual_word,neutral,neutral,left,360.836387496,left,1
SPC109,SPC,DZ,word_arrow,2,166,mask,visual_arrow,valid,left,left,443.518717075,left,1
SPC109,SPC,DZ,word_arrow,2,167,mask,visual_word,valid,right,right,428.946433472,right,1
SPC109,SPC,DZ,word_arrow,2,168,mask,visual_arrow,invalid,right,left,357.37560608,left,1
SPC109,SPC,DZ,word_arrow,2,169,mask,visual_arrow,valid,right,right,370.414672769,right,1
SPC109,SPC,DZ,word_arrow,2,170,mask,visual_arrow,neutral,neutral,right,430.838147993,left,0
SPC109,SPC,DZ,word_arrow,2,171,mask,visual_word,invalid,left,right,453.559208079,right,1
SPC109,SPC,DZ,word_arrow,2,172,mask,visual_arrow,neutral,neutral,left,524.071827531,left,1
SPC109,SPC,DZ,word_arrow,2,173,mask,visual_arrow,valid,left,left,440.123233479,left,1
SPC109,SPC,DZ,word_arrow,2,174,mask,visual_arrow,valid,right,right,400.15332168,right,1
SPC109,SPC,DZ,word_arrow,2,175,mask,visual_arrow,valid,right,right,442.900949158,right,1
SPC109,SPC,DZ,word_arrow,2,176,mask,visual_arrow,valid,right,right,499.002928729,right,1
SPC109,SPC,DZ,word_arrow,2,177,mask,visual_arrow,valid,right,right,367.716018809,right,1
SPC109,SPC,DZ,word_arrow,2,178,mask,visual_word,valid,right,right,345.117231947,right,1
SPC109,SPC,DZ,word_arrow,2,179,mask,visual_word,valid,right,right,436.202807236,right,1
SPC109,SPC,DZ,word_arrow,2,180,mask,visual_word,neutral,neutral,left,459.27532285,left,1
SPC109,SPC,DZ,word_arrow,2,181,mask,visual_word,valid,left,left,380.048333085,left,1
SPC109,SPC,DZ,word_arrow,2,182,mask,visual_word,valid,right,right,398.450458422,right,1
SPC109,SPC,DZ,word_arrow,2,183,mask,visual_word,valid,left,left,369.884608546,left,1
SPC109,SPC,DZ,word_arrow,2,184,mask,visual_arrow,invalid,left,right,382.282860926,right,1
SPC109,SPC,DZ,word_arrow,2,185,mask,visual_word,valid,left,left,569.341100752,left,1
SPC109,SPC,DZ,word_arrow,2,186,mask,visual_arrow,invalid,right,left,478.096122155,left,1
SPC109,SPC,DZ,word_arrow,3,187,mask,visual_word,neutral,neutral,left,451.686698827,left,1
SPC109,SPC,DZ,word_arrow,3,188,mask,visual_arrow,valid,right,right,340.688507305,right,1
SPC109,SPC,DZ,word_arrow,3,189,mask,visual_word,valid,left,left,328.798553208,left,1
SPC109,SPC,DZ,word_arrow,3,190,mask,visual_arrow,invalid,left,right,333.528479678,right,1
SPC109,SPC,DZ,word_arrow,3,191,mask,visual_word,valid,right,right,332.289422746,right,1
SPC109,SPC,DZ,word_arrow,3,192,mask,visual_arrow,neutral,neutral,left,359.016372473,left,1
SPC109,SPC,DZ,word_arrow,3,193,mask,visual_word,valid,right,right,364.421042614,right,1
SPC109,SPC,DZ,word_arrow,3,194,mask,visual_word,neutral,neutral,right,408.149096649,right,1
SPC109,SPC,DZ,word_arrow,3,195,mask,visual_arrow,neutral,neutral,left,345.574316219,left,1
SPC109,SPC,DZ,word_arrow,3,196,mask,visual_arrow,valid,right,right,318.98436381,right,1
SPC109,SPC,DZ,word_arrow,3,197,mask,visual_arrow,valid,right,right,354.740009294,right,1
SPC109,SPC,DZ,word_arrow,3,198,mask,visual_word,valid,left,left,375.147800194,left,1
SPC109,SPC,DZ,word_arrow,3,199,mask,visual_word,valid,left,left,344.212025753,left,1
SPC109,SPC,DZ,word_arrow,3,200,mask,visual_word,valid,left,left,371.61820021,left,1
SPC109,SPC,DZ,word_arrow,3,201,mask,visual_word,valid,right,right,405.054494739,right,1
SPC109,SPC,DZ,word_arrow,3,202,mask,visual_word,neutral,neutral,left,349.16313237,left,1
SPC109,SPC,DZ,word_arrow,3,203,mask,visual_arrow,valid,right,right,347.199078184,right,1
SPC109,SPC,DZ,word_arrow,3,204,mask,visual_word,invalid,left,right,421.609397745,right,1
SPC109,SPC,DZ,word_arrow,3,205,mask,visual_arrow,valid,left,left,318.978282157,left,1
SPC109,SPC,DZ,word_arrow,3,206,mask,visual_arrow,valid,right,right,325.409151381,right,1
SPC109,SPC,DZ,word_arrow,3,207,mask,visual_word,valid,left,left,332.519245218,left,1
SPC109,SPC,DZ,word_arrow,3,208,mask,visual_arrow,valid,right,right,345.545188291,right,1
SPC109,SPC,DZ,word_arrow,3,209,mask,visual_word,invalid,right,left,365.952339023,left,1
SPC109,SPC,DZ,word_arrow,3,210,mask,visual_arrow,valid,left,left,426.420306321,left,1
SPC109,SPC,DZ,word_arrow,3,211,mask,visual_arrow,neutral,neutral,right,411.122065154,right,1
SPC109,SPC,DZ,word_arrow,3,212,mask,visual_word,neutral,neutral,right,355.535425711,right,1
SPC109,SPC,DZ,word_arrow,3,213,mask,visual_arrow,neutral,neutral,right,367.617111886,right,1
SPC109,SPC,DZ,word_arrow,3,214,mask,visual_arrow,neutral,neutral,right,532.010947005,right,1
SPC109,SPC,DZ,word_arrow,3,215,mask,visual_word,valid,right,right,439.069506945,right,1
SPC109,SPC,DZ,word_arrow,3,216,mask,visual_arrow,valid,left,left,431.501688552,left,1
SPC109,SPC,DZ,word_arrow,3,217,mask,visual_arrow,neutral,neutral,left,502.27037759,left,1
SPC109,SPC,DZ,word_arrow,3,218,mask,visual_arrow,valid,left,left,594.363266835,left,1
SPC109,SPC,DZ,word_arrow,3,219,mask,visual_word,valid,left,left,502.764912089,left,1
SPC109,SPC,DZ,word_arrow,3,220,mask,visual_word,valid,right,right,413.475025212,right,1
SPC109,SPC,DZ,word_arrow,3,221,mask,visual_word,neutral,neutral,right,448.560088407,right,1
SPC109,SPC,DZ,word_arrow,3,222,mask,visual_word,invalid,right,left,354.019493214,left,1
SPC109,SPC,DZ,word_arrow,3,223,mask,visual_arrow,neutral,neutral,right,374.776179087,right,1
SPC109,SPC,DZ,word_arrow,3,224,mask,visual_word,invalid,left,right,362.106813001,right,1
SPC109,SPC,DZ,word_arrow,3,225,mask,visual_arrow,neutral,neutral,right,350.535025587,right,1
SPC109,SPC,DZ,word_arrow,3,226,mask,visual_arrow,neutral,neutral,right,360.620008665,right,1
SPC109,SPC,DZ,word_arrow,3,227,mask,visual_word,neutral,neutral,right,329.403197742,right,1
SPC109,SPC,DZ,word_arrow,3,228,mask,visual_word,invalid,right,left,373.462861869,left,1
SPC109,SPC,DZ,word_arrow,3,229,mask,visual_word,neutral,neutral,right,391.514171846,right,1
SPC109,SPC,DZ,word_arrow,3,230,mask,visual_arrow,valid,left,left,361.23041471,left,1
SPC109,SPC,DZ,word_arrow,3,231,mask,visual_word,valid,left,left,372.018308961,left,1
SPC109,SPC,DZ,word_arrow,3,232,mask,visual_word,invalid,left,right,357.107053162,right,1
SPC109,SPC,DZ,word_arrow,3,233,mask,visual_word,invalid,left,right,392.496839166,right,1
SPC109,SPC,DZ,word_arrow,3,234,mask,visual_word,neutral,neutral,left,385.88960201,left,1
SPC109,SPC,DZ,word_arrow,3,235,mask,visual_word,invalid,right,left,738.642190699,left,1
SPC109,SPC,DZ,word_arrow,3,236,mask,visual_word,neutral,neutral,right,469.37342966,right,1
SPC109,SPC,DZ,word_arrow,3,237,mask,visual_arrow,invalid,right,left,477.808363852,left,1
SPC109,SPC,DZ,word_arrow,3,238,mask,visual_arrow,valid,left,left,412.534929579,left,1
SPC109,SPC,DZ,word_arrow,3,239,mask,visual_word,valid,left,left,468.946753535,left,1
SPC109,SPC,DZ,word_arrow,3,240,mask,visual_arrow,valid,left,left,419.042299502,left,1
SPC109,SPC,DZ,word_arrow,3,241,mask,visual_arrow,invalid,right,left,387.771393871,left,1
SPC109,SPC,DZ,word_arrow,3,242,mask,visual_word,neutral,neutral,right,429.863802972,right,1
SPC109,SPC,DZ,word_arrow,3,243,mask,visual_arrow,valid,right,right,390.995630878,right,1
SPC109,SPC,DZ,word_arrow,3,244,mask,visual_word,valid,right,right,393.697165651,right,1
SPC109,SPC,DZ,word_arrow,3,245,mask,visual_arrow,valid,right,right,339.746491052,right,1
SPC109,SPC,DZ,word_arrow,3,246,mask,visual_word,valid,left,left,361.503128894,left,1
SPC109,SPC,DZ,word_arrow,3,247,mask,visual_word,valid,right,right,435.237104539,right,1
SPC109,SPC,DZ,word_arrow,3,248,mask,visual_word,neutral,neutral,left,370.664980845,left,1
SPC109,SPC,DZ,word_arrow,3,249,mask,visual_arrow,neutral,neutral,left,397.751708399,left,1
SPC109,SPC,DZ,word_arrow,3,250,mask,visual_arrow,invalid,right,left,361.157754902,left,1
SPC109,SPC,DZ,word_arrow,3,251,mask,visual_word,valid,left,left,366.257702117,left,1
SPC109,SPC,DZ,word_arrow,3,252,mask,visual_word,valid,right,right,378.642510856,right,1
SPC109,SPC,DZ,word_arrow,3,253,mask,visual_arrow,invalid,left,right,468.387561385,right,1
SPC109,SPC,DZ,word_arrow,3,254,mask,visual_word,valid,right,right,540.744842612,right,1
SPC109,SPC,DZ,word_arrow,4,255,mask,visual_word,valid,right,right,361.885952996,right,1
SPC109,SPC,DZ,word_arrow,4,256,mask,visual_word,neutral,neutral,left,404.94726575,left,1
SPC109,SPC,DZ,word_arrow,4,257,mask,visual_arrow,valid,right,right,342.044396093,right,1
SPC109,SPC,DZ,word_arrow,4,258,mask,visual_arrow,valid,right,right,353.16646134,right,1
SPC109,SPC,DZ,word_arrow,4,259,mask,visual_arrow,neutral,neutral,left,363.219755818,left,1
SPC109,SPC,DZ,word_arrow,4,260,mask,visual_word,valid,left,left,350.975145237,left,1
SPC109,SPC,DZ,word_arrow,4,261,mask,visual_word,neutral,neutral,left,379.673511256,left,1
SPC109,SPC,DZ,word_arrow,4,262,mask,visual_arrow,valid,left,left,382.436502725,left,1
SPC109,SPC,DZ,word_arrow,4,263,mask,visual_word,valid,right,right,399.487860617,right,1
SPC109,SPC,DZ,word_arrow,4,264,mask,visual_word,valid,left,left,391.55962423,left,1
SPC109,SPC,DZ,word_arrow,4,265,mask,visual_arrow,valid,left,left,392.330713919,left,1
SPC109,SPC,DZ,word_arrow,4,266,mask,visual_word,valid,left,left,380.739401095,left,1
SPC109,SPC,DZ,word_arrow,4,267,mask,visual_arrow,invalid,left,right,414.822591818,right,1
SPC109,SPC,DZ,word_arrow,4,268,mask,visual_arrow,invalid,right,left,447.577741113,left,1
SPC109,SPC,DZ,word_arrow,4,269,mask,visual_word,invalid,left,right,351.352847996,right,1
SPC109,SPC,DZ,word_arrow,4,270,mask,visual_arrow,valid,right,right,442.717539147,right,1
SPC109,SPC,DZ,word_arrow,4,271,mask,visual_arrow,invalid,right,left,387.800841825,left,1
SPC109,SPC,DZ,word_arrow,4,272,mask,visual_arrow,invalid,right,left,445.229262346,left,1
SPC109,SPC,DZ,word_arrow,4,273,mask,visual_arrow,valid,left,left,486.00835423,left,1
SPC109,SPC,DZ,word_arrow,4,274,mask,visual_word,valid,right,right,404.07822933,right,1
SPC109,SPC,DZ,word_arrow,4,275,mask,visual_arrow,neutral,neutral,right,396.43455029,right,1
SPC109,SPC,DZ,word_arrow,4,276,mask,visual_word,neutral,neutral,right,397.186114569,right,1
SPC109,SPC,DZ,word_arrow,4,277,mask,visual_word,invalid,right,left,407.937198994,left,1
SPC109,SPC,DZ,word_arrow,4,278,mask,visual_arrow,neutral,neutral,left,418.715170585,left,1
SPC109,SPC,DZ,word_arrow,4,279,mask,visual_word,valid,left,left,405.093545443,left,1
SPC109,SPC,DZ,word_arrow,4,280,mask,visual_arrow,invalid,right,left,582.500520162,left,1
SPC109,SPC,DZ,word_arrow,4,281,mask,visual_arrow,valid,right,right,371.252980782,right,1
SPC109,SPC,DZ,word_arrow,4,282,mask,visual_arrow,neutral,neutral,left,391.335563269,left,1
SPC109,SPC,DZ,word_arrow,4,283,mask,visual_arrow,valid,left,left,561.452875147,left,1
SPC109,SPC,DZ,word_arrow,4,284,mask,visual_arrow,valid,right,right,395.165084978,right,1
SPC109,SPC,DZ,word_arrow,4,285,mask,visual_arrow,valid,left,left,470.540787093,left,1
SPC109,SPC,DZ,word_arrow,4,286,mask,visual_arrow,neutral,neutral,left,445.292639663,left,1
SPC109,SPC,DZ,word_arrow,4,287,mask,visual_arrow,invalid,left,right,453.061792767,right,1
SPC109,SPC,DZ,word_arrow,4,288,mask,visual_arrow,valid,right,right,494.20770444,right,1
SPC109,SPC,DZ,word_arrow,4,289,mask,visual_arrow,valid,right,right,494.242914137,right,1
SPC109,SPC,DZ,word_arrow,4,290,mask,visual_arrow,invalid,right,left,394.621256972,left,1
SPC109,SPC,DZ,word_arrow,4,291,mask,visual_word,valid,right,right,355.362578644,right,1
SPC109,SPC,DZ,word_arrow,4,292,mask,visual_word,valid,left,left,422.095930087,left,1
SPC109,SPC,DZ,word_arrow,4,293,mask,visual_word,neutral,neutral,left,464.908855269,right,0
SPC109,SPC,DZ,word_arrow,4,294,mask,visual_arrow,valid,left,left,408.318742644,left,1
SPC109,SPC,DZ,word_arrow,4,295,mask,visual_word,invalid,right,left,458.997167181,left,1
SPC109,SPC,DZ,word_arrow,4,296,mask,visual_word,invalid,right,left,394.058863982,left,1
SPC109,SPC,DZ,word_arrow,4,297,mask,visual_arrow,valid,right,right,371.486644377,right,1
SPC109,SPC,DZ,word_arrow,4,298,mask,visual_word,valid,right,right,380.58351865,right,1
SPC109,SPC,DZ,word_arrow,4,299,mask,visual_word,neutral,neutral,left,383.681001142,left,1
SPC109,SPC,DZ,word_arrow,4,300,mask,visual_word,valid,left,left,315.719475737,left,1
SPC109,SPC,DZ,word_arrow,4,301,mask,visual_arrow,neutral,neutral,left,355.108109419,left,1
SPC109,SPC,DZ,word_arrow,4,302,mask,visual_arrow,valid,left,left,385.210377281,left,1
SPC109,SPC,DZ,word_arrow,4,303,mask,visual_arrow,valid,right,right,477.625594242,right,1
SPC109,SPC,DZ,word_arrow,4,304,mask,visual_arrow,valid,left,left,358.36595553,left,1
SPC109,SPC,DZ,word_arrow,4,305,mask,visual_word,invalid,right,left,386.120384792,left,1
SPC109,SPC,DZ,word_arrow,4,306,mask,visual_arrow,invalid,right,left,586.814653594,left,1
SPC109,SPC,DZ,word_arrow,4,307,mask,visual_word,valid,right,right,348.91314432,right,1
SPC109,SPC,DZ,word_arrow,4,308,mask,visual_word,valid,right,right,370.33817207,right,1
SPC109,SPC,DZ,word_arrow,4,309,mask,visual_word,invalid,right,left,669.361266308,right,0
SPC109,SPC,DZ,word_arrow,4,310,mask,visual_arrow,valid,right,right,412.492357893,right,1
SPC109,SPC,DZ,word_arrow,4,311,mask,visual_word,valid,right,right,343.876894447,right,1
SPC109,SPC,DZ,word_arrow,4,312,mask,visual_word,invalid,left,right,390.002080589,right,1
SPC109,SPC,DZ,word_arrow,4,313,mask,visual_word,invalid,right,left,344.066385995,left,1
SPC109,SPC,DZ,word_arrow,4,314,mask,visual_word,neutral,neutral,left,370.818622643,left,1
SPC109,SPC,DZ,word_arrow,4,315,mask,visual_word,neutral,neutral,right,525.217419141,right,1
SPC109,SPC,DZ,word_arrow,4,316,mask,visual_word,valid,left,left,368.286093813,left,1
SPC109,SPC,DZ,word_arrow,4,317,mask,visual_word,neutral,neutral,right,428.687483072,right,1
SPC109,SPC,DZ,word_arrow,4,318,mask,visual_arrow,invalid,right,left,439.090312575,left,1
SPC109,SPC,DZ,word_arrow,4,319,mask,visual_word,valid,left,left,398.865291383,left,1
SPC109,SPC,DZ,word_arrow,4,320,mask,visual_arrow,valid,left,left,409.567402327,left,1
SPC109,SPC,DZ,word_arrow,4,321,mask,visual_word,valid,left,left,387.677928433,left,1
SPC109,SPC,DZ,word_arrow,4,322,mask,visual_arrow,valid,right,right,557.071203366,right,1
SPC109,SPC,DZ,word_arrow,4,323,mask,visual_word,invalid,left,right,393.819759018,right,1
SPC109,SPC,DZ,word_arrow,4,324,mask,visual_word,invalid,left,right,483.557127533,right,1
SPC109,SPC,DZ,word_arrow,4,325,mask,visual_arrow,valid,left,left,403.312901151,left,1
SPC109,SPC,DZ,word_arrow,4,326,mask,visual_arrow,neutral,neutral,left,366.06597004,left,1
SPC109,SPC,DZ,word_arrow,4,327,mask,visual_arrow,valid,left,left,402.822847711,left,1
SPC109,SPC,DZ,word_arrow,4,328,mask,visual_arrow,neutral,neutral,right,372.605348588,right,1
SPC109,SPC,DZ,word_arrow,4,329,mask,visual_arrow,valid,left,left,384.654385969,left,1
SPC109,SPC,DZ,word_arrow,4,330,mask,visual_word,invalid,right,left,322.345918161,left,1
SPC109,SPC,DZ,word_arrow,4,331,mask,visual_word,valid,left,left,430.756525835,left,1
SPC109,SPC,DZ,word_arrow,4,332,mask,visual_arrow,neutral,neutral,right,433.19078791,right,1
SPC109,SPC,DZ,word_arrow,4,333,mask,visual_arrow,invalid,left,right,368.618664332,right,1
SPC109,SPC,DZ,word_arrow,4,334,mask,visual_word,neutral,neutral,left,389.008210157,left,1
SPC109,SPC,DZ,word_arrow,4,335,mask,visual_arrow,valid,left,left,393.425411661,left,1
