subj_id,sona_experiment_code,experimenter,cue_contrast,block,trial,mask_type,cue_type,cue_validity,cue_dir,target_loc,rt,response_type,is_correct
SPC107,SPC,PME,word_arrow,0,0,mask,visual_word,valid,left,left,2116.71553313,timeout,0
SPC107,SPC,PME,word_arrow,0,1,mask,visual_word,valid,right,right,765.863464099,right,1
SPC107,SPC,PME,word_arrow,0,2,mask,visual_arrow,valid,left,left,2116.71873399,timeout,0
SPC107,SPC,PME,word_arrow,0,3,mask,visual_word,valid,right,right,654.741754583,right,1
SPC107,SPC,PME,word_arrow,0,4,mask,visual_word,invalid,right,left,824.035260679,left,1
SPC107,SPC,PME,word_arrow,0,5,mask,visual_arrow,valid,right,right,455.339035132,right,1
SPC107,SPC,PME,word_arrow,0,6,mask,visual_arrow,invalid,right,left,710.513225955,left,1
SPC107,SPC,PME,word_arrow,0,7,mask,visual_word,invalid,left,right,635.909812558,right,1
SPC107,SPC,PME,word_arrow,0,8,mask,visual_arrow,neutral,neutral,left,405.516682884,left,1
SPC107,SPC,PME,word_arrow,0,9,mask,visual_arrow,neutral,neutral,right,384.986364335,left,0
SPC107,SPC,PME,word_arrow,0,10,mask,visual_word,valid,left,left,564.749244597,left,1
SPC107,SPC,PME,word_arrow,0,11,mask,visual_word,neutral,neutral,left,551.214406432,left,1
SPC107,SPC,PME,word_arrow,0,12,mask,visual_arrow,valid,left,left,491.339752125,left,1
SPC107,SPC,PME,word_arrow,0,13,mask,visual_arrow,valid,right,right,506.108521971,right,1
SPC107,SPC,PME,word_arrow,0,14,mask,visual_arrow,invalid,left,right,577.557807539,right,1
SPC107,SPC,PME,word_arrow,0,15,mask,visual_word,neutral,neutral,right,499.678633616,right,1
SPC107,SPC,PME,word_arrow,1,16,mask,visual_arrow,valid,left,left,469.090571545,left,1
SPC107,SPC,PME,word_arrow,1,17,mask,visual_arrow,valid,left,left,509.924267642,left,1
SPC107,SPC,PME,word_arrow,1,18,mask,visual_arrow,neutral,neutral,right,492.389954419,right,1
SPC107,SPC,PME,word_arrow,1,19,mask,visual_word,invalid,right,left,514.130518284,left,1
SPC107,SPC,PME,word_arrow,1,20,mask,visual_word,neutral,neutral,right,489.567755814,right,1
SPC107,SPC,PME,word_arrow,1,21,mask,visual_word,valid,left,left,377.731934343,left,1
SPC107,SPC,PME,word_arrow,1,22,mask,visual_arrow,valid,right,right,462.261855986,right,1
SPC107,SPC,PME,word_arrow,1,23,mask,visual_arrow,valid,right,right,407.937813685,right,1
SPC107,SPC,PME,word_arrow,1,24,mask,visual_arrow,valid,left,left,419.041278295,left,1
SPC107,SPC,PME,word_arrow,1,25,mask,visual_arrow,invalid,right,left,489.159005941,left,1
SPC107,SPC,PME,word_arrow,1,26,mask,visual_arrow,neutral,neutral,right,469.90967172,right,1
SPC107,SPC,PME,word_arrow,1,27,mask,visual_arrow,invalid,left,right,444.761151797,right,1
SPC107,SPC,PME,word_arrow,1,28,mask,visual_arrow,valid,left,left,415.379173923,left,1
SPC107,SPC,PME,word_arrow,1,29,mask,visual_arrow,valid,right,right,414.635614052,right,1
SPC107,SPC,PME,word_arrow,1,30,mask,visual_word,valid,right,right,441.401528731,right,1
SPC107,SPC,PME,word_arrow,1,31,mask,visual_word,invalid,right,left,415.849700399,left,1
SPC107,SPC,PME,word_arrow,1,32,mask,visual_word,valid,left,left,465.05044556,left,1
SPC107,SPC,PME,word_arrow,1,33,mask,visual_arrow,neutral,neutral,left,448.06059869,left,1
SPC107,SPC,PME,word_arrow,1,34,mask,visual_arrow,invalid,left,right,502.479386458,right,1
SPC107,SPC,PME,word_arrow,1,35,mask,visual_arrow,valid,left,left,444.971448325,left,1
SPC107,SPC,PME,word_arrow,1,36,mask,visual_arrow,valid,right,right,396.042776298,right,1
SPC107,SPC,PME,word_arrow,1,37,mask,visual_word,invalid,left,right,396.797539179,right,1
SPC107,SPC,PME,word_arrow,1,38,mask,visual_word,invalid,right,left,448.381324899,left,1
SPC107,SPC,PME,word_arrow,1,39,mask,visual_arrow,neutral,neutral,right,425.880556695,right,1
SPC107,SPC,PME,word_arrow,1,40,mask,visual_word,neutral,neutral,right,394.515325719,right,1
SPC107,SPC,PME,word_arrow,1,41,mask,visual_arrow,invalid,left,right,422.638085118,right,1
SPC107,SPC,PME,word_arrow,1,42,mask,visual_arrow,invalid,right,left,553.367945304,left,1
SPC107,SPC,PME,word_arrow,1,43,mask,visual_arrow,neutral,neutral,right,437.172231896,right,1
SPC107,SPC,PME,word_arrow,1,44,mask,visual_arrow,valid,left,left,406.999321418,left,1
SPC107,SPC,PME,word_arrow,1,45,mask,visual_arrow,invalid,right,left,458.378252073,left,1
SPC107,SPC,PME,word_arrow,1,46,mask,visual_arrow,valid,left,left,394.18883796,left,1
SPC107,SPC,PME,word_arrow,1,47,mask,visual_arrow,valid,right,right,394.95160299,right,1
SPC107,SPC,PME,word_arrow,1,48,mask,visual_word,invalid,right,left,404.466160504,left,1
SPC107,SPC,PME,word_arrow,1,49,mask,visual_arrow,valid,right,right,468.386382259,right,1
SPC107,SPC,PME,word_arrow,1,50,mask,visual_word,valid,right,right,425.969860698,right,1
SPC107,SPC,PME,word_arrow,1,51,mask,visual_arrow,valid,left,left,452.354232817,left,1
SPC107,SPC,PME,word_arrow,1,52,mask,visual_word,neutral,neutral,right,370.849444331,right,1
SPC107,SPC,PME,word_arrow,1,53,mask,visual_arrow,neutral,neutral,right,463.961192769,right,1
SPC107,SPC,PME,word_arrow,1,54,mask,visual_word,invalid,left,right,398.73373963,right,1
SPC107,SPC,PME,word_arrow,1,55,mask,visual_arrow,valid,right,right,441.860532112,right,1
SPC107,SPC,PME,word_arrow,1,56,mask,visual_arrow,valid,right,right,401.646202499,right,1
SPC107,SPC,PME,word_arrow,1,57,mask,visual_word,neutral,neutral,right,426.743828742,right,1
SPC107,SPC,PME,word_arrow,1,58,mask,visual_word,neutral,neutral,left,397.167878727,left,1
SPC107,SPC,PME,word_arrow,1,59,mask,visual_word,valid,left,left,391.932871556,left,1
SPC107,SPC,PME,word_arrow,1,60,mask,visual_word,neutral,neutral,left,499.400478848,left,1
SPC107,SPC,PME,word_arrow,1,61,mask,visual_word,neutral,neutral,left,471.892924819,left,1
SPC107,SPC,PME,word_arrow,1,62,mask,visual_word,invalid,left,right,455.616229643,right,1
SPC107,SPC,PME,word_arrow,1,63,mask,visual_word,invalid,left,right,1958.06712844,right,1
SPC107,SPC,PME,word_arrow,1,64,mask,visual_arrow,neutral,neutral,right,395.895216634,right,1
SPC107,SPC,PME,word_arrow,1,65,mask,visual_arrow,valid,right,right,469.965046605,right,1
SPC107,SPC,PME,word_arrow,1,66,mask,visual_word,neutral,neutral,left,406.486543583,left,1
SPC107,SPC,PME,word_arrow,1,67,mask,visual_arrow,neutral,neutral,left,415.593631567,left,1
SPC107,SPC,PME,word_arrow,1,68,mask,visual_word,neutral,neutral,right,505.594783879,right,1
SPC107,SPC,PME,word_arrow,1,69,mask,visual_arrow,valid,right,right,366.503316092,right,1
SPC107,SPC,PME,word_arrow,1,70,mask,visual_word,valid,right,right,424.430246851,right,1
SPC107,SPC,PME,word_arrow,1,71,mask,visual_word,valid,left,left,487.643718632,left,1
SPC107,SPC,PME,word_arrow,1,72,mask,visual_arrow,invalid,right,left,414.281278809,left,1
SPC107,SPC,PME,word_arrow,1,73,mask,visual_word,valid,right,right,433.379212333,right,1
SPC107,SPC,PME,word_arrow,1,74,mask,visual_arrow,valid,left,left,484.089803338,left,1
SPC107,SPC,PME,word_arrow,1,75,mask,visual_arrow,invalid,right,left,418.500973061,left,1
SPC107,SPC,PME,word_arrow,1,76,mask,visual_arrow,valid,right,right,451.606191744,right,1
SPC107,SPC,PME,word_arrow,1,77,mask,visual_arrow,valid,right,right,434.709809997,right,1
SPC107,SPC,PME,word_arrow,1,78,mask,visual_word,neutral,neutral,right,490.845219196,right,1
SPC107,SPC,PME,word_arrow,1,79,mask,visual_arrow,invalid,right,left,399.917417802,left,1
SPC107,SPC,PME,word_arrow,1,80,mask,visual_word,valid,right,right,428.063543481,right,1
SPC107,SPC,PME,word_arrow,1,81,mask,visual_word,valid,right,right,502.502432653,right,1
SPC107,SPC,PME,word_arrow,1,82,mask,visual_arrow,valid,left,left,396.622452115,left,1
SPC107,SPC,PME,word_arrow,1,83,mask,visual_arrow,invalid,left,right,445.3962025,right,1
SPC107,SPC,PME,word_arrow,1,84,mask,visual_arrow,neutral,neutral,right,467.525350816,right,1
SPC107,SPC,PME,word_arrow,1,85,mask,visual_arrow,valid,left,left,417.906573288,left,1
SPC107,SPC,PME,word_arrow,1,86,mask,visual_arrow,neutral,neutral,left,545.76142067,left,1
SPC107,SPC,PME,word_arrow,1,87,mask,visual_arrow,valid,right,right,493.182167367,right,1
SPC107,SPC,PME,word_arrow,1,88,mask,visual_arrow,valid,left,left,387.632195534,left,1
SPC107,SPC,PME,word_arrow,1,89,mask,visual_arrow,invalid,right,left,477.410567961,left,1
SPC107,SPC,PME,word_arrow,1,90,mask,visual_word,invalid,left,right,550.530062481,right,1
SPC107,SPC,PME,word_arrow,2,91,mask,visual_arrow,valid,left,left,427.968798012,left,1
SPC107,SPC,PME,word_arrow,2,92,mask,visual_arrow,invalid,left,right,453.260076307,right,1
SPC107,SPC,PME,word_arrow,2,93,mask,visual_word,neutral,neutral,left,484.097485405,left,1
SPC107,SPC,PME,word_arrow,2,94,mask,visual_word,valid,left,left,468.197851584,left,1
SPC107,SPC,PME,word_arrow,2,95,mask,visual_word,valid,left,left,410.278922973,left,1
SPC107,SPC,PME,word_arrow,2,96,mask,visual_word,valid,left,left,498.477350711,left,1
SPC107,SPC,PME,word_arrow,2,97,mask,visual_word,valid,right,right,382.550829663,right,1
SPC107,SPC,PME,word_arrow,2,98,mask,visual_word,valid,right,right,392.637060841,right,1
SPC107,SPC,PME,word_arrow,2,99,mask,visual_word,neutral,neutral,left,421.10327256,left,1
SPC107,SPC,PME,word_arrow,2,100,mask,visual_word,neutral,neutral,right,430.602465942,right,1
SPC107,SPC,PME,word_arrow,2,101,mask,visual_word,neutral,neutral,left,456.604655332,left,1
SPC107,SPC,PME,word_arrow,2,102,mask,visual_word,valid,left,left,448.757746082,left,1
SPC107,SPC,PME,word_arrow,2,103,mask,visual_word,valid,left,left,583.74379033,left,1
SPC107,SPC,PME,word_arrow,2,104,mask,visual_arrow,neutral,neutral,right,441.990487043,right,1
SPC107,SPC,PME,word_arrow,2,105,mask,visual_word,invalid,right,left,377.438415446,left,1
SPC107,SPC,PME,word_arrow,2,106,mask,visual_arrow,valid,right,right,771.199618457,right,1
SPC107,SPC,PME,word_arrow,2,107,mask,visual_arrow,invalid,left,right,415.3727722,right,1
SPC107,SPC,PME,word_arrow,2,108,mask,visual_word,invalid,right,left,481.115563864,left,1
SPC107,SPC,PME,word_arrow,2,109,mask,visual_word,valid,right,right,566.209477107,right,1
SPC107,SPC,PME,word_arrow,2,110,mask,visual_word,valid,right,right,427.679440234,left,0
SPC107,SPC,PME,word_arrow,2,111,mask,visual_word,neutral,neutral,left,482.788333504,left,1
SPC107,SPC,PME,word_arrow,2,112,mask,visual_arrow,invalid,left,right,360.251075488,right,1
SPC107,SPC,PME,word_arrow,2,113,mask,visual_arrow,valid,left,left,466.83972652,left,1
SPC107,SPC,PME,word_arrow,2,114,mask,visual_arrow,neutral,neutral,left,404.457518182,left,1
SPC107,SPC,PME,word_arrow,2,115,mask,visual_word,valid,left,left,436.226697737,left,1
SPC107,SPC,PME,word_arrow,2,116,mask,visual_arrow,valid,left,left,974.674472498,right,0
SPC107,SPC,PME,word_arrow,2,117,mask,visual_word,valid,left,left,426.495441976,left,1
SPC107,SPC,PME,word_arrow,2,118,mask,visual_word,valid,right,right,434.271292123,right,1
SPC107,SPC,PME,word_arrow,2,119,mask,visual_word,valid,right,right,489.048256171,right,1
SPC107,SPC,PME,word_arrow,2,120,mask,visual_word,neutral,neutral,left,438.836039128,left,1
SPC107,SPC,PME,word_arrow,2,121,mask,visual_word,valid,left,left,407.952217556,left,1
SPC107,SPC,PME,word_arrow,2,122,mask,visual_arrow,neutral,neutral,right,409.721333095,right,1
SPC107,SPC,PME,word_arrow,2,123,mask,visual_arrow,valid,right,right,451.145587933,right,1
SPC107,SPC,PME,word_arrow,2,124,mask,visual_word,valid,left,left,409.622106423,left,1
SPC107,SPC,PME,word_arrow,2,125,mask,visual_arrow,valid,left,left,413.491626548,left,1
SPC107,SPC,PME,word_arrow,2,126,mask,visual_arrow,neutral,neutral,left,472.473560892,left,1
SPC107,SPC,PME,word_arrow,2,127,mask,visual_arrow,invalid,right,left,479.959733175,left,1
SPC107,SPC,PME,word_arrow,2,128,mask,visual_word,valid,left,left,471.693511216,left,1
SPC107,SPC,PME,word_arrow,2,129,mask,visual_word,invalid,right,left,437.512483355,left,1
SPC107,SPC,PME,word_arrow,2,130,mask,visual_word,neutral,neutral,right,381.410683192,right,1
SPC107,SPC,PME,word_arrow,2,131,mask,visual_word,valid,left,left,422.709464305,left,1
SPC107,SPC,PME,word_arrow,2,132,mask,visual_word,valid,right,right,479.502970398,right,1
SPC107,SPC,PME,word_arrow,2,133,mask,visual_arrow,invalid,right,left,421.286041686,left,1
SPC107,SPC,PME,word_arrow,2,134,mask,visual_arrow,valid,left,left,429.409825361,left,1
SPC107,SPC,PME,word_arrow,2,135,mask,visual_word,valid,right,right,876.090853222,left,0
SPC107,SPC,PME,word_arrow,2,136,mask,visual_arrow,valid,right,right,418.304120147,right,1
SPC107,SPC,PME,word_arrow,2,137,mask,visual_word,invalid,right,left,421.77481307,left,1
SPC107,SPC,PME,word_arrow,2,138,mask,visual_word,neutral,neutral,left,436.890556182,left,1
SPC107,SPC,PME,word_arrow,2,139,mask,visual_word,invalid,left,right,357.30788436,right,1
SPC107,SPC,PME,word_arrow,2,140,mask,visual_arrow,neutral,neutral,left,407.804017719,left,1
SPC107,SPC,PME,word_arrow,2,141,mask,visual_word,valid,left,left,431.559843286,left,1
SPC107,SPC,PME,word_arrow,2,142,mask,visual_word,neutral,neutral,right,496.359661478,right,1
SPC107,SPC,PME,word_arrow,2,143,mask,visual_arrow,invalid,left,right,565.365090137,right,1
SPC107,SPC,PME,word_arrow,2,144,mask,visual_arrow,neutral,neutral,left,474.227952474,left,1
SPC107,SPC,PME,word_arrow,2,145,mask,visual_arrow,neutral,neutral,right,417.819189799,right,1
SPC107,SPC,PME,word_arrow,2,146,mask,visual_arrow,valid,left,left,474.382874118,left,1
SPC107,SPC,PME,word_arrow,2,147,mask,visual_word,valid,right,right,369.681450375,right,1
SPC107,SPC,PME,word_arrow,2,148,mask,visual_arrow,valid,right,right,566.775709312,right,1
SPC107,SPC,PME,word_arrow,2,149,mask,visual_word,invalid,right,left,496.432321008,left,1
SPC107,SPC,PME,word_arrow,2,150,mask,visual_arrow,valid,left,left,495.879532418,left,1
SPC107,SPC,PME,word_arrow,2,151,mask,visual_word,neutral,neutral,right,472.019678889,right,1
SPC107,SPC,PME,word_arrow,2,152,mask,visual_arrow,valid,left,left,461.466122093,left,1
SPC107,SPC,PME,word_arrow,2,153,mask,visual_arrow,valid,left,left,503.23991089,left,1
SPC107,SPC,PME,word_arrow,2,154,mask,visual_arrow,valid,right,right,452.02518437,right,1
SPC107,SPC,PME,word_arrow,2,155,mask,visual_word,valid,left,left,396.144243572,left,1
SPC107,SPC,PME,word_arrow,2,156,mask,visual_arrow,valid,left,left,391.508117382,left,1
SPC107,SPC,PME,word_arrow,2,157,mask,visual_word,valid,left,left,658.702179146,left,1
SPC107,SPC,PME,word_arrow,2,158,mask,visual_word,valid,left,left,482.141439617,left,1
SPC107,SPC,PME,word_arrow,2,159,mask,visual_arrow,valid,right,right,464.320329305,right,1
SPC107,SPC,PME,word_arrow,2,160,mask,visual_arrow,invalid,right,left,927.602939671,right,0
SPC107,SPC,PME,word_arrow,2,161,mask,visual_arrow,valid,left,left,348.182871556,left,1
SPC107,SPC,PME,word_arrow,2,162,mask,visual_arrow,valid,left,left,480.603426202,left,1
SPC107,SPC,PME,word_arrow,2,163,mask,visual_arrow,invalid,left,right,478.732843389,right,1
SPC107,SPC,PME,word_arrow,2,164,mask,visual_arrow,neutral,neutral,right,405.192115641,right,1
SPC107,SPC,PME,word_arrow,2,165,mask,visual_arrow,neutral,neutral,left,544.958324797,left,1
SPC107,SPC,PME,word_arrow,2,166,mask,visual_word,valid,right,right,483.391375603,right,1
SPC107,SPC,PME,word_arrow,2,167,mask,visual_word,valid,right,right,395.17950425,right,1
SPC107,SPC,PME,word_arrow,2,168,mask,visual_word,valid,right,right,438.967274404,right,1
SPC107,SPC,PME,word_arrow,2,169,mask,visual_arrow,neutral,neutral,left,420.811034006,left,1
SPC107,SPC,PME,word_arrow,2,170,mask,visual_arrow,neutral,neutral,right,501.129583632,right,1
SPC107,SPC,PME,word_arrow,2,171,mask,visual_arrow,valid,right,right,421.533148112,right,1
SPC107,SPC,PME,word_arrow,2,172,mask,visual_arrow,invalid,right,left,390.058127625,left,1
SPC107,SPC,PME,word_arrow,2,173,mask,visual_arrow,neutral,neutral,right,426.536412988,right,1
SPC107,SPC,PME,word_arrow,2,174,mask,visual_arrow,invalid,left,right,354.304837141,right,1
SPC107,SPC,PME,word_arrow,3,175,mask,visual_word,neutral,neutral,right,427.960475776,right,1
SPC107,SPC,PME,word_arrow,3,176,mask,visual_word,valid,left,left,475.197813172,left,1
SPC107,SPC,PME,word_arrow,3,177,mask,visual_arrow,invalid,right,left,498.216480592,left,1
SPC107,SPC,PME,word_arrow,3,178,mask,visual_arrow,neutral,neutral,left,486.671297243,left,1
SPC107,SPC,PME,word_arrow,3,179,mask,visual_arrow,valid,left,left,412.086128752,left,1
SPC107,SPC,PME,word_arrow,3,180,mask,visual_word,valid,right,right,716.552929427,right,1
SPC107,SPC,PME,word_arrow,3,181,mask,visual_arrow,valid,right,right,451.2953882,right,1
SPC107,SPC,PME,word_arrow,3,182,mask,visual_arrow,neutral,neutral,left,516.127855168,left,1
SPC107,SPC,PME,word_arrow,3,183,mask,visual_arrow,neutral,neutral,left,586.540061968,left,1
SPC107,SPC,PME,word_arrow,3,184,mask,visual_word,valid,left,left,445.073555773,left,1
SPC107,SPC,PME,word_arrow,3,185,mask,visual_arrow,valid,right,right,475.611044249,right,1
SPC107,SPC,PME,word_arrow,3,186,mask,visual_word,valid,left,left,434.24728567,left,1
SPC107,SPC,PME,word_arrow,3,187,mask,visual_arrow,invalid,left,right,436.369136023,right,1
SPC107,SPC,PME,word_arrow,3,188,mask,visual_arrow,invalid,left,right,583.118662296,right,1
SPC107,SPC,PME,word_arrow,3,189,mask,visual_word,neutral,neutral,left,433.801405818,left,1
SPC107,SPC,PME,word_arrow,3,190,mask,visual_arrow,neutral,neutral,right,436.679619483,right,1
SPC107,SPC,PME,word_arrow,3,191,mask,visual_word,neutral,neutral,right,476.811366894,right,1
SPC107,SPC,PME,word_arrow,3,192,mask,visual_arrow,neutral,neutral,left,405.934395167,left,1
SPC107,SPC,PME,word_arrow,3,193,mask,visual_arrow,valid,left,left,518.384141658,left,1
SPC107,SPC,PME,word_arrow,3,194,mask,visual_arrow,valid,right,right,429.82049575,right,1
SPC107,SPC,PME,word_arrow,3,195,mask,visual_arrow,valid,left,left,503.9274557,left,1
SPC107,SPC,PME,word_arrow,3,196,mask,visual_word,invalid,left,right,588.717927378,right,1
SPC107,SPC,PME,word_arrow,3,197,mask,visual_word,invalid,left,right,494.587985251,right,1
SPC107,SPC,PME,word_arrow,3,198,mask,visual_word,valid,right,right,395.298256171,right,1
SPC107,SPC,PME,word_arrow,3,199,mask,visual_word,invalid,left,right,461.986261907,right,1
SPC107,SPC,PME,word_arrow,3,200,mask,visual_arrow,valid,left,left,357.042533033,left,1
SPC107,SPC,PME,word_arrow,3,201,mask,visual_arrow,neutral,neutral,right,390.610916213,right,1
SPC107,SPC,PME,word_arrow,3,202,mask,visual_word,valid,right,right,384.39932654,right,1
SPC107,SPC,PME,word_arrow,3,203,mask,visual_word,valid,right,right,401.988374475,right,1
SPC107,SPC,PME,word_arrow,3,204,mask,visual_arrow,neutral,neutral,left,418.932449042,left,1
SPC107,SPC,PME,word_arrow,3,205,mask,visual_arrow,valid,right,right,412.729181604,right,1
SPC107,SPC,PME,word_arrow,3,206,mask,visual_arrow,invalid,left,right,439.813901976,right,1
SPC107,SPC,PME,word_arrow,3,207,mask,visual_word,valid,right,right,394.261177404,right,1
SPC107,SPC,PME,word_arrow,3,208,mask,visual_word,valid,left,left,1019.37896907,left,1
SPC107,SPC,PME,word_arrow,3,209,mask,visual_arrow,neutral,neutral,left,445.525517258,left,1
SPC107,SPC,PME,word_arrow,3,210,mask,visual_word,valid,left,left,502.992804464,left,1
SPC107,SPC,PME,word_arrow,3,211,mask,visual_arrow,invalid,left,right,435.627816756,right,1
SPC107,SPC,PME,word_arrow,3,212,mask,visual_word,valid,left,left,378.898007784,left,1
SPC107,SPC,PME,word_arrow,3,213,mask,visual_arrow,neutral,neutral,right,391.992727646,right,1
SPC107,SPC,PME,word_arrow,3,214,mask,visual_arrow,valid,right,right,395.427891017,right,1
SPC107,SPC,PME,word_arrow,3,215,mask,visual_arrow,neutral,neutral,right,484.199592851,right,1
SPC107,SPC,PME,word_arrow,3,216,mask,visual_arrow,valid,right,right,377.326065247,right,1
SPC107,SPC,PME,word_arrow,3,217,mask,visual_word,invalid,right,left,404.734712691,left,1
SPC107,SPC,PME,word_arrow,3,218,mask,visual_arrow,neutral,neutral,left,462.192717403,left,1
SPC107,SPC,PME,word_arrow,3,219,mask,visual_word,neutral,neutral,right,455.281099559,right,1
SPC107,SPC,PME,word_arrow,3,220,mask,visual_word,invalid,left,right,391.840686778,right,1
SPC107,SPC,PME,word_arrow,3,221,mask,visual_arrow,valid,left,left,457.218580354,left,1
SPC107,SPC,PME,word_arrow,3,222,mask,visual_arrow,valid,right,right,415.259461743,right,1
SPC107,SPC,PME,word_arrow,3,223,mask,visual_word,invalid,right,left,439.674344463,left,1
SPC107,SPC,PME,word_arrow,3,224,mask,visual_arrow,invalid,right,left,567.820150056,left,1
SPC107,SPC,PME,word_arrow,3,225,mask,visual_word,valid,right,right,481.288410325,right,1
SPC107,SPC,PME,word_arrow,3,226,mask,visual_word,invalid,right,left,407.782571956,left,1
SPC107,SPC,PME,word_arrow,3,227,mask,visual_word,valid,left,left,394.574541637,left,1
SPC107,SPC,PME,word_arrow,3,228,mask,visual_word,invalid,right,left,644.658404179,left,1
SPC107,SPC,PME,word_arrow,3,229,mask,visual_word,valid,right,right,403.132682066,right,1
SPC107,SPC,PME,word_arrow,3,230,mask,visual_arrow,valid,right,right,508.574784903,right,1
SPC107,SPC,PME,word_arrow,3,231,mask,visual_word,neutral,neutral,right,384.820559766,right,1
SPC107,SPC,PME,word_arrow,3,232,mask,visual_arrow,invalid,right,left,420.650350814,left,1
SPC107,SPC,PME,word_arrow,3,233,mask,visual_arrow,neutral,neutral,right,476.910593568,right,1
SPC107,SPC,PME,word_arrow,3,234,mask,visual_arrow,valid,left,left,402.362555054,left,1
SPC107,SPC,PME,word_arrow,3,235,mask,visual_arrow,neutral,neutral,left,430.476992216,left,1
SPC107,SPC,PME,word_arrow,3,236,mask,visual_arrow,invalid,right,left,1017.23183192,right,0
SPC107,SPC,PME,word_arrow,3,237,mask,visual_word,neutral,neutral,right,364.718196251,right,1
SPC107,SPC,PME,word_arrow,3,238,mask,visual_arrow,valid,right,right,513.13024941,right,1
SPC107,SPC,PME,word_arrow,3,239,mask,visual_word,invalid,left,right,384.271932297,right,1
SPC107,SPC,PME,word_arrow,3,240,mask,visual_word,valid,left,left,977.494750588,left,1
SPC107,SPC,PME,word_arrow,3,241,mask,visual_word,neutral,neutral,left,430.17195022,left,1
SPC107,SPC,PME,word_arrow,3,242,mask,visual_word,invalid,left,right,512.279460718,right,1
SPC107,SPC,PME,word_arrow,3,243,mask,visual_word,invalid,right,left,493.706148212,left,1
SPC107,SPC,PME,word_arrow,3,244,mask,visual_word,invalid,left,right,484.889058178,right,1
SPC107,SPC,PME,word_arrow,3,245,mask,visual_word,valid,left,left,404.054849943,left,1
SPC107,SPC,PME,word_arrow,3,246,mask,visual_arrow,neutral,neutral,right,407.732318448,right,1
SPC107,SPC,PME,word_arrow,3,247,mask,visual_word,invalid,right,left,464.895523917,left,1
SPC107,SPC,PME,word_arrow,3,248,mask,visual_word,valid,right,right,369.636318243,right,1
SPC107,SPC,PME,word_arrow,3,249,mask,visual_arrow,neutral,neutral,left,403.415318036,left,1
SPC107,SPC,PME,word_arrow,3,250,mask,visual_word,invalid,right,left,510.530190515,left,1
SPC107,SPC,PME,word_arrow,3,251,mask,visual_word,invalid,left,right,395.980359519,right,1
SPC107,SPC,PME,word_arrow,3,252,mask,visual_word,valid,right,right,485.751690054,right,1
SPC107,SPC,PME,word_arrow,3,253,mask,visual_arrow,valid,left,left,428.862158147,left,1
SPC107,SPC,PME,word_arrow,3,254,mask,visual_word,valid,left,left,437.973727339,left,1
SPC107,SPC,PME,word_arrow,3,255,mask,visual_arrow,invalid,right,left,526.072288232,left,1
SPC107,SPC,PME,word_arrow,3,256,mask,visual_word,neutral,neutral,left,556.780062481,left,1
SPC107,SPC,PME,word_arrow,3,257,mask,visual_arrow,invalid,right,left,384.556808871,left,1
SPC107,SPC,PME,word_arrow,3,258,mask,visual_word,valid,right,right,444.083529652,right,1
SPC107,SPC,PME,word_arrow,4,259,mask,visual_word,neutral,neutral,left,561.709067399,left,1
SPC107,SPC,PME,word_arrow,4,260,mask,visual_arrow,valid,left,left,397.816693127,left,1
SPC107,SPC,PME,word_arrow,4,261,mask,visual_word,valid,right,right,447.586871351,right,1
SPC107,SPC,PME,word_arrow,4,262,mask,visual_arrow,invalid,right,left,390.931642425,left,1
SPC107,SPC,PME,word_arrow,4,263,mask,visual_word,valid,right,right,440.489283521,right,1
SPC107,SPC,PME,word_arrow,4,264,mask,visual_arrow,valid,left,left,386.565348765,left,1
SPC107,SPC,PME,word_arrow,4,265,mask,visual_word,invalid,left,right,390.689657379,right,1
SPC107,SPC,PME,word_arrow,4,266,mask,visual_arrow,valid,left,left,407.480730821,left,1
SPC107,SPC,PME,word_arrow,4,267,mask,visual_arrow,invalid,left,right,456.961871352,right,1
SPC107,SPC,PME,word_arrow,4,268,mask,visual_word,valid,right,right,375.048653079,right,1
SPC107,SPC,PME,word_arrow,4,269,mask,visual_arrow,valid,left,left,403.161489809,left,1
SPC107,SPC,PME,word_arrow,4,270,mask,visual_arrow,valid,left,left,470.583452832,left,1
SPC107,SPC,PME,word_arrow,4,271,mask,visual_arrow,valid,left,left,428.696673665,left,1
SPC107,SPC,PME,word_arrow,4,272,mask,visual_arrow,invalid,left,right,357.795695483,right,1
SPC107,SPC,PME,word_arrow,4,273,mask,visual_word,valid,right,right,418.594438184,right,1
SPC107,SPC,PME,word_arrow,4,274,mask,visual_word,valid,left,left,397.965533135,left,1
SPC107,SPC,PME,word_arrow,4,275,mask,visual_arrow,valid,right,right,433.475558231,right,1
SPC107,SPC,PME,word_arrow,4,276,mask,visual_word,invalid,left,right,441.206916419,right,1
SPC107,SPC,PME,word_arrow,4,277,mask,visual_arrow,valid,right,right,426.359405408,right,1
SPC107,SPC,PME,word_arrow,4,278,mask,visual_arrow,valid,left,left,449.476979413,left,1
SPC107,SPC,PME,word_arrow,4,279,mask,visual_word,valid,left,left,392.599610776,left,1
SPC107,SPC,PME,word_arrow,4,280,mask,visual_word,valid,right,right,410.011971218,right,1
SPC107,SPC,PME,word_arrow,4,281,mask,visual_word,neutral,neutral,left,365.163756018,left,1
SPC107,SPC,PME,word_arrow,4,282,mask,visual_word,neutral,neutral,right,393.237542252,right,1
SPC107,SPC,PME,word_arrow,4,283,mask,visual_word,invalid,left,right,468.350532623,right,1
SPC107,SPC,PME,word_arrow,4,284,mask,visual_word,neutral,neutral,right,397.468119432,right,1
SPC107,SPC,PME,word_arrow,4,285,mask,visual_arrow,neutral,neutral,left,424.231153334,left,1
SPC107,SPC,PME,word_arrow,4,286,mask,visual_arrow,invalid,left,right,377.020062993,right,1
SPC107,SPC,PME,word_arrow,4,287,mask,visual_word,neutral,neutral,right,461.19564939,right,1
SPC107,SPC,PME,word_arrow,4,288,mask,visual_word,valid,right,right,453.892566322,right,1
SPC107,SPC,PME,word_arrow,4,289,mask,visual_word,valid,right,right,407.688786745,right,1
SPC107,SPC,PME,word_arrow,4,290,mask,visual_arrow,valid,right,right,432.796335655,right,1
SPC107,SPC,PME,word_arrow,4,291,mask,visual_word,valid,right,right,394.888225956,right,1
SPC107,SPC,PME,word_arrow,4,292,mask,visual_arrow,valid,right,right,413.995121889,right,1
SPC107,SPC,PME,word_arrow,4,293,mask,visual_word,valid,right,right,527.125371298,right,1
SPC107,SPC,PME,word_arrow,4,294,mask,visual_word,invalid,right,left,411.912962205,left,1
SPC107,SPC,PME,word_arrow,4,295,mask,visual_arrow,invalid,left,right,511.686021204,right,1
SPC107,SPC,PME,word_arrow,4,296,mask,visual_arrow,invalid,right,left,391.137777835,left,1
SPC107,SPC,PME,word_arrow,4,297,mask,visual_arrow,invalid,left,right,455.156266004,right,1
SPC107,SPC,PME,word_arrow,4,298,mask,visual_word,invalid,right,left,415.212409096,left,1
SPC107,SPC,PME,word_arrow,4,299,mask,visual_word,neutral,neutral,left,378.135562838,left,1
SPC107,SPC,PME,word_arrow,4,300,mask,visual_arrow,valid,right,right,372.223573697,right,1
SPC107,SPC,PME,word_arrow,4,301,mask,visual_word,invalid,left,right,381.760217146,right,1
SPC107,SPC,PME,word_arrow,4,302,mask,visual_word,neutral,neutral,left,407.79441514,left,1
SPC107,SPC,PME,word_arrow,4,303,mask,visual_arrow,valid,right,right,399.592850559,right,1
SPC107,SPC,PME,word_arrow,4,304,mask,visual_word,valid,left,left,426.35524429,left,1
SPC107,SPC,PME,word_arrow,4,305,mask,visual_word,valid,left,left,467.113079996,left,1
SPC107,SPC,PME,word_arrow,4,306,mask,visual_arrow,valid,left,left,433.645844003,left,1
SPC107,SPC,PME,word_arrow,4,307,mask,visual_word,valid,left,left,484.023225443,left,1
SPC107,SPC,PME,word_arrow,4,308,mask,visual_word,valid,left,left,1227.42945304,left,1
SPC107,SPC,PME,word_arrow,4,309,mask,visual_word,neutral,neutral,right,394.296386869,right,1
SPC107,SPC,PME,word_arrow,4,310,mask,visual_word,valid,right,right,467.183498924,right,1
SPC107,SPC,PME,word_arrow,4,311,mask,visual_word,invalid,left,right,442.196622453,right,1
SPC107,SPC,PME,word_arrow,4,312,mask,visual_word,valid,left,left,452.626946122,left,1
SPC107,SPC,PME,word_arrow,4,313,mask,visual_word,neutral,neutral,right,564.745403564,right,1
SPC107,SPC,PME,word_arrow,4,314,mask,visual_word,valid,left,left,430.198517362,left,1
SPC107,SPC,PME,word_arrow,4,315,mask,visual_word,valid,left,left,496.30780754,left,1
SPC107,SPC,PME,word_arrow,4,316,mask,visual_word,valid,left,left,516.43385742,left,1
SPC107,SPC,PME,word_arrow,4,317,mask,visual_arrow,valid,right,right,488.542840314,right,1
SPC107,SPC,PME,word_arrow,4,318,mask,visual_word,valid,right,right,485.66718734,right,1
SPC107,SPC,PME,word_arrow,4,319,mask,visual_word,valid,left,left,404.448875857,left,1
SPC107,SPC,PME,word_arrow,4,320,mask,visual_arrow,valid,right,right,413.219873502,right,1
SPC107,SPC,PME,word_arrow,4,321,mask,visual_word,neutral,neutral,left,454.67101557,left,1
SPC107,SPC,PME,word_arrow,4,322,mask,visual_arrow,neutral,neutral,right,333.430746185,right,1
SPC107,SPC,PME,word_arrow,4,323,mask,visual_arrow,invalid,right,left,458.87950681,left,1
SPC107,SPC,PME,word_arrow,4,324,mask,visual_word,invalid,right,left,544.976249616,left,1
SPC107,SPC,PME,word_arrow,4,325,mask,visual_word,neutral,neutral,left,364.117074669,left,1
SPC107,SPC,PME,word_arrow,4,326,mask,visual_arrow,valid,left,left,543.882515622,left,1
SPC107,SPC,PME,word_arrow,4,327,mask,visual_word,valid,right,right,436.665535695,right,1
SPC107,SPC,PME,word_arrow,4,328,mask,visual_arrow,invalid,left,right,471.440963331,right,1
SPC107,SPC,PME,word_arrow,4,329,mask,visual_word,neutral,neutral,left,926.21536669,left,1
SPC107,SPC,PME,word_arrow,4,330,mask,visual_arrow,valid,right,right,404.688300216,right,1
SPC107,SPC,PME,word_arrow,4,331,mask,visual_word,invalid,left,right,397.475161324,right,1
SPC107,SPC,PME,word_arrow,4,332,mask,visual_arrow,neutral,neutral,left,528.807423436,left,1
SPC107,SPC,PME,word_arrow,4,333,mask,visual_arrow,valid,right,right,359.903782137,right,1
SPC107,SPC,PME,word_arrow,4,334,mask,visual_word,invalid,right,left,411.146036055,left,1
SPC107,SPC,PME,word_arrow,4,335,mask,visual_arrow,valid,right,right,363.242599609,right,1
