subj_id	date	computer	experimenter	part	trial_ix	cue_present	cue_type	cue_loc	cue_pos_x	cue_pos_y	target_present	target_loc	target_pos_x	target_pos_y	target_opacity	rt	key	response	is_correct
SPC3_314	2015_Apr_15_1400	LL-Jerry	AO	practice	0	0					1	left	-188.828977161	-1.46260212829	1.0	1337.36796305		nogo	0
SPC3_314	2015_Apr_15_1400	LL-Jerry	AO	practice	1	0					1	right	179.367097075	7.7603439437	1.0	654.201326892	 	go	1
SPC3_314	2015_Apr_15_1400	LL-Jerry	AO	practice	2	0					1	left	-178.794035184	-3.77773925123	1.0	507.084017619	 	go	1
SPC3_314	2015_Apr_15_1400	LL-Jerry	AO	practice	3	0					0					1328.92090268		nogo	1
SPC3_314	2015_Apr_15_1400	LL-Jerry	AO	practice	4	0					1	left	-182.17693711	20.5761002055	1.0	1337.51586452		nogo	0
SPC3_314	2015_Apr_15_1400	LL-Jerry	AO	practice	5	0					1	left	-199.158612483	-0.664075109394	1.0	819.319535047	 	go	1
SPC3_314	2015_Apr_15_1400	LL-Jerry	AO	practice	6	0					1	right	203.713001606	-9.3356686268	1.0	788.441402838	 	go	1
SPC3_314	2015_Apr_15_1400	LL-Jerry	AO	practice	7	0					1	left	-210.801409125	-0.8906956075	1.0	1338.05043623		nogo	0
SPC3_314	2015_Apr_15_1400	LL-Jerry	AO	practice	8	0					1	left	-189.540419145	3.73634982296	1.0	507.344078273	 	go	1
SPC3_314	2015_Apr_15_1400	LL-Jerry	AO	practice	9	0					1	left	-187.017590269	9.31803182221	1.0	666.479352862	 	go	1
SPC3_314	2015_Apr_15_1400	LL-Jerry	AO	cueing_effect	0	1	sound	left			1	left	-179.384209781	-5.23506899469	1.0	597.391171381	 	go	1
SPC3_314	2015_Apr_15_1400	LL-Jerry	AO	cueing_effect	1	1	sound	right			1	right	217.460226713	-13.5261007175	1.0	550.795659423	 	go	1
SPC3_314	2015_Apr_15_1400	LL-Jerry	AO	cueing_effect	2	1	sound	right			1	right	206.149491166	-19.2457118614	1.0	845.801336691	 	go	1
SPC3_314	2015_Apr_15_1400	LL-Jerry	AO	cueing_effect	3	0					1	left	-178.195379951	-21.8042872862	1.0	639.020800591	 	go	1
SPC3_314	2015_Apr_15_1400	LL-Jerry	AO	cueing_effect	4	1	frame	left	-200	0	1	left	-220.17530459	-5.43660683101	1.0	700.32576099	 	go	1
SPC3_314	2015_Apr_15_1400	LL-Jerry	AO	cueing_effect	5	1	frame	right	200	0	1	right	182.328388422	-3.57179393586	1.0	610.768374056	 	go	1
SPC3_314	2015_Apr_15_1400	LL-Jerry	AO	cueing_effect	6	1	sound	left			1	left	-197.007193511	-10.7971039918	1.0	712.361214682	 	go	1
SPC3_314	2015_Apr_15_1400	LL-Jerry	AO	cueing_effect	7	0					0					1338.07324804		nogo	1
SPC3_314	2015_Apr_15_1400	LL-Jerry	AO	cueing_effect	8	1	sound	right			1	right	197.830950769	6.91556283426	1.0	565.930560231	 	go	1
SPC3_314	2015_Apr_15_1400	LL-Jerry	AO	cueing_effect	9	1	sound	right			1	right	184.849005695	15.2386272881	1.0	595.526255667	 	go	1
SPC3_314	2015_Apr_15_1400	LL-Jerry	AO	cueing_effect	10	0					1	right	192.427312669	-2.19724220469	1.0	895.687920973	 	go	1
SPC3_314	2015_Apr_15_1400	LL-Jerry	AO	cueing_effect	11	1	frame	left	-200	0	1	left	-182.953323296	15.1911664475	1.0	670.343015343	 	go	1
SPC3_314	2015_Apr_15_1400	LL-Jerry	AO	cueing_effect	12	0					0					1330.01704141		nogo	1
SPC3_314	2015_Apr_15_1400	LL-Jerry	AO	cueing_effect	13	0					1	right	196.922123688	20.6217583983	1.0	1329.90145683		nogo	0
SPC3_314	2015_Apr_15_1400	LL-Jerry	AO	cueing_effect	14	1	frame	right	200	0	1	right	206.034922219	12.0804517952	1.0	548.968764022	 	go	1
SPC3_314	2015_Apr_15_1400	LL-Jerry	AO	cueing_effect	15	1	sound	left			1	left	-205.931109405	-11.5388586712	1.0	696.192150936	 	go	1
SPC3_314	2015_Apr_15_1400	LL-Jerry	AO	cueing_effect	16	1	sound	right			1	right	198.591730696	-17.9539223066	1.0	479.233471677	 	go	1
SPC3_314	2015_Apr_15_1400	LL-Jerry	AO	cueing_effect	17	1	frame	right	200	0	1	right	189.615340031	-11.0693608667	1.0	655.997803435	 	go	1
SPC3_314	2015_Apr_15_1400	LL-Jerry	AO	cueing_effect	18	1	frame	left	-200	0	0					1331.83024824		nogo	1
SPC3_314	2015_Apr_15_1400	LL-Jerry	AO	cueing_effect	19	1	sound	left			1	left	-195.999799961	20.1843163125	1.0	642.573073506	 	go	1
SPC3_314	2015_Apr_15_1400	LL-Jerry	AO	cueing_effect	20	0					1	left	-191.59956003	-3.8079276534	1.0	612.36220412	 	go	1
SPC3_314	2015_Apr_15_1400	LL-Jerry	AO	cueing_effect	21	1	frame	left	-200	0	1	left	-217.375893641	1.74010442398	1.0	476.481534541	 	go	1
SPC3_314	2015_Apr_15_1400	LL-Jerry	AO	cueing_effect	22	0					1	right	208.608210452	15.9118002203	1.0	709.429819137	 	go	1
SPC3_314	2015_Apr_15_1400	LL-Jerry	AO	cueing_effect	23	1	frame	left	-200	0	1	left	-208.758011717	7.74762560625	1.0	560.701573268	 	go	1
SPC3_314	2015_Apr_15_1400	LL-Jerry	AO	cueing_effect	24	1	frame	right	200	0	1	right	216.210990132	15.1050661795	1.0	594.499696046	 	go	1
SPC3_314	2015_Apr_15_1400	LL-Jerry	AO	cueing_effect	25	1	frame	left	-200	0	1	left	-206.631003978	-19.1884545697	1.0	558.191064745	 	go	1
SPC3_314	2015_Apr_15_1400	LL-Jerry	AO	cueing_effect	26	1	frame	right	200	0	1	right	204.320427929	11.7545497604	1.0	571.107078344	 	go	1
SPC3_314	2015_Apr_15_1400	LL-Jerry	AO	cueing_effect	27	1	sound	left			1	left	-201.881632481	-12.0746612351	1.0	752.894707024	 	go	1
SPC3_314	2015_Apr_15_1400	LL-Jerry	AO	cueing_effect	28	0					1	left	-191.1244843	-12.9609568235	1.0	1338.41581456		nogo	0
SPC3_314	2015_Apr_15_1400	LL-Jerry	AO	cueing_effect	29	1	frame	left	-200	0	1	left	-191.316667216	20.4612897174	1.0	587.790563703	 	go	1
SPC3_314	2015_Apr_15_1400	LL-Jerry	AO	cueing_effect	30	1	frame	left	-200	0	0					1331.85610361		nogo	1
SPC3_314	2015_Apr_15_1400	LL-Jerry	AO	cueing_effect	31	1	frame	right	200	0	1	right	199.737540214	21.2884942952	1.0	643.889730796	 	go	1
SPC3_314	2015_Apr_15_1400	LL-Jerry	AO	cueing_effect	32	1	sound	left			1	left	-220.852910955	1.92293845745	1.0	528.179803863	 	go	1
SPC3_314	2015_Apr_15_1400	LL-Jerry	AO	cueing_effect	33	0					1	right	214.298398861	7.46142317342	1.0	675.513831899	 	go	1
SPC3_314	2015_Apr_15_1400	LL-Jerry	AO	cueing_effect	34	1	frame	right	200	0	1	right	220.653832451	9.89918000995	1.0	651.042183861	 	go	1
SPC3_314	2015_Apr_15_1400	LL-Jerry	AO	cueing_effect	35	1	sound	left			1	left	-220.763100982	-9.51958259519	1.0	590.639835224	 	go	1
SPC3_314	2015_Apr_15_1400	LL-Jerry	AO	cueing_effect	36	1	sound	right			1	right	199.324054666	6.1085298946	1.0	479.693142697	 	go	1
SPC3_314	2015_Apr_15_1400	LL-Jerry	AO	cueing_effect	37	1	frame	left	-200	0	0					1336.81666292		nogo	1
SPC3_314	2015_Apr_15_1400	LL-Jerry	AO	cueing_effect	38	1	sound	left			1	left	-179.261716044	9.6975466113	1.0	608.290186152	 	go	1
SPC3_314	2015_Apr_15_1400	LL-Jerry	AO	cueing_effect	39	1	frame	left	-200	0	1	left	-198.329167567	-4.19011024947	1.0	714.61584419	 	go	1
SPC3_314	2015_Apr_15_1400	LL-Jerry	AO	cueing_effect	40	1	frame	left	-200	0	1	left	-208.481179452	-20.9000998509	1.0	488.418133929	 	go	1
SPC3_314	2015_Apr_15_1400	LL-Jerry	AO	cueing_effect	41	1	frame	right	200	0	1	right	176.796370527	7.97258767259	1.0	545.397859067	 	go	1
SPC3_314	2015_Apr_15_1400	LL-Jerry	AO	cueing_effect	42	1	frame	left	-200	0	1	left	-180.002796905	12.5419246711	1.0	515.538681298	 	go	1
SPC3_314	2015_Apr_15_1400	LL-Jerry	AO	cueing_effect	43	1	frame	right	200	0	1	right	220.312526275	2.65987262546	1.0	452.176798135	 	go	1
SPC3_314	2015_Apr_15_1400	LL-Jerry	AO	cueing_effect	44	1	frame	left	-200	0	1	left	-221.971385592	-1.92518194101	1.0	408.743849024	 	go	1
SPC3_314	2015_Apr_15_1400	LL-Jerry	AO	cueing_effect	45	1	sound	right			0					1329.93225567		nogo	1
SPC3_314	2015_Apr_15_1400	LL-Jerry	AO	cueing_effect	46	1	frame	right	200	0	1	right	210.827150816	-21.5360410002	1.0	482.547737658	 	go	1
SPC3_314	2015_Apr_15_1400	LL-Jerry	AO	cueing_effect	47	1	frame	left	-200	0	1	left	-202.140876077	22.7854207073	1.0	1325.8925546		nogo	0
SPC3_314	2015_Apr_15_1400	LL-Jerry	AO	cueing_effect	48	0					1	left	-204.164406502	2.00665173007	1.0	1330.26037365		nogo	0
SPC3_314	2015_Apr_15_1400	LL-Jerry	AO	cueing_effect	49	1	frame	left	-200	0	1	left	-191.914469981	-2.65655190145	1.0	521.093124524	 	go	1
SPC3_314	2015_Apr_15_1400	LL-Jerry	AO	cueing_effect	50	1	sound	right			1	right	196.25927863	18.8886871427	1.0	564.039791003	 	go	1
SPC3_314	2015_Apr_15_1400	LL-Jerry	AO	cueing_effect	51	0					0					1329.306053		nogo	1
SPC3_314	2015_Apr_15_1400	LL-Jerry	AO	cueing_effect	52	1	frame	right	200	0	1	right	205.788927935	-0.603481917734	1.0	550.444727764	 	go	1
SPC3_314	2015_Apr_15_1400	LL-Jerry	AO	cueing_effect	53	1	frame	left	-200	0	1	left	-220.940490668	11.6084080186	1.0	597.168749198	 	go	1
SPC3_314	2015_Apr_15_1400	LL-Jerry	AO	cueing_effect	54	0					1	left	-179.992133549	-12.3253449528	1.0	677.845260128	 	go	1
SPC3_314	2015_Apr_15_1400	LL-Jerry	AO	cueing_effect	55	1	frame	right	200	0	1	right	176.169473728	-8.55058021211	1.0	775.86947754	 	go	1
SPC3_314	2015_Apr_15_1400	LL-Jerry	AO	cueing_effect	56	1	frame	right	200	0	0					1328.92090268		nogo	1
SPC3_314	2015_Apr_15_1400	LL-Jerry	AO	cueing_effect	57	1	sound	right			1	right	222.254938888	3.45446525308	1.0	879.164122045	 	go	1
SPC3_314	2015_Apr_15_1400	LL-Jerry	AO	cueing_effect	58	1	frame	right	200	0	1	right	214.862036536	18.1711021095	1.0	637.30036281	 	go	1
SPC3_314	2015_Apr_15_1400	LL-Jerry	AO	cueing_effect	59	1	frame	left	-200	0	1	left	-212.69523701	-12.0198283451	1.0	458.423981443	 	go	1
SPC3_314	2015_Apr_15_1400	LL-Jerry	AO	cueing_effect	60	0					1	right	210.885778266	-19.1358262868	1.0	549.428815022	 	go	1
SPC3_314	2015_Apr_15_1400	LL-Jerry	AO	cueing_effect	61	1	sound	right			1	right	190.877240458	3.63643283195	1.0	519.217563793	 	go	1
SPC3_314	2015_Apr_15_1400	LL-Jerry	AO	cueing_effect	62	0					1	right	194.213314585	3.93821450047	1.0	656.66506812	 	go	1
SPC3_314	2015_Apr_15_1400	LL-Jerry	AO	cueing_effect	63	1	frame	left	-200	0	1	left	-189.076510579	-1.42952369552	1.0	545.38911581	 	go	1
SPC3_314	2015_Apr_15_1400	LL-Jerry	AO	cueing_effect	64	1	sound	left			1	left	-189.578720649	13.5145803035	1.0	627.43665278	 	go	1
SPC3_314	2015_Apr_15_1400	LL-Jerry	AO	cueing_effect	65	1	frame	left	-200	0	1	left	-210.033555222	11.1036846999	1.0	449.99365136	 	go	1
SPC3_314	2015_Apr_15_1400	LL-Jerry	AO	cueing_effect	66	1	frame	left	-200	0	1	left	-197.812100519	0.472002662122	1.0	451.157463714	 	go	1
SPC3_314	2015_Apr_15_1400	LL-Jerry	AO	cueing_effect	67	1	sound	right			1	right	177.740391381	-21.6794881991	1.0	760.328514501	 	go	1
SPC3_314	2015_Apr_15_1400	LL-Jerry	AO	cueing_effect	68	1	sound	left			1	left	-209.596570096	-5.95199338713	1.0	504.256037995	 	go	1
SPC3_314	2015_Apr_15_1400	LL-Jerry	AO	cueing_effect	69	1	frame	left	-200	0	0					1338.47132511		nogo	1
SPC3_314	2015_Apr_15_1400	LL-Jerry	AO	cueing_effect	70	1	sound	right			1	right	192.646274876	12.8315769859	1.0	503.897121176	 	go	1
SPC3_314	2015_Apr_15_1400	LL-Jerry	AO	cueing_effect	71	1	sound	right			1	right	185.658371392	-8.14696614619	1.0	1338.60819973		nogo	0
SPC3_314	2015_Apr_15_1400	LL-Jerry	AO	cueing_effect	72	1	frame	right	200	0	1	right	190.464028203	-10.7257115542	1.0	562.778264284	 	go	1
SPC3_314	2015_Apr_15_1400	LL-Jerry	AO	cueing_effect	73	1	sound	left			1	left	-177.461963571	17.762237151	1.0	429.607328027	 	go	1
SPC3_314	2015_Apr_15_1400	LL-Jerry	AO	cueing_effect	74	1	sound	left			1	left	-195.229541988	-0.605893623874	1.0	821.415998042	 	go	1
SPC3_314	2015_Apr_15_1400	LL-Jerry	AO	cueing_effect	75	1	sound	left			1	left	-198.367930794	6.780338002	1.0	580.424051732	 	go	1
SPC3_314	2015_Apr_15_1400	LL-Jerry	AO	cueing_effect	76	1	frame	left	-200	0	1	left	-210.368647175	15.8579506485	1.0	437.734255567	 	go	1
SPC3_314	2015_Apr_15_1400	LL-Jerry	AO	cueing_effect	77	0					1	left	-178.818596437	18.4714597006	1.0	595.963872969	 	go	1
SPC3_314	2015_Apr_15_1400	LL-Jerry	AO	cueing_effect	78	1	sound	left			1	left	-178.560401696	-17.3173318807	1.0	443.460172042	 	go	1
SPC3_314	2015_Apr_15_1400	LL-Jerry	AO	cueing_effect	79	1	frame	right	200	0	1	right	209.817219481	5.25863885173	1.0	491.223301739	 	go	1
SPC3_314	2015_Apr_15_1400	LL-Jerry	AO	cueing_effect	80	1	frame	right	200	0	1	right	183.532126621	2.98621834918	1.0	462.20513992	 	go	1
SPC3_314	2015_Apr_15_1400	LL-Jerry	AO	cueing_effect	81	0					1	right	216.879808238	10.6561745524	1.0	853.531705216	 	go	1
SPC3_314	2015_Apr_15_1400	LL-Jerry	AO	cueing_effect	82	1	frame	right	200	0	0					1332.66062103		nogo	1
SPC3_314	2015_Apr_15_1400	LL-Jerry	AO	cueing_effect	83	0					1	left	-214.914340984	6.60545416039	1.0	1337.9641287		nogo	0
SPC3_314	2015_Apr_15_1400	LL-Jerry	AO	cueing_effect	84	1	sound	right			1	right	207.790355928	-8.16712642841	1.0	542.165720835	 	go	1
SPC3_314	2015_Apr_15_1400	LL-Jerry	AO	cueing_effect	85	1	sound	left			1	left	-223.081986879	-8.81552384243	1.0	467.737533152	 	go	1
SPC3_314	2015_Apr_15_1400	LL-Jerry	AO	cueing_effect	86	1	sound	left			1	left	-195.662297876	-23.2928585992	1.0	445.820117369	 	go	1
SPC3_314	2015_Apr_15_1400	LL-Jerry	AO	cueing_effect	87	1	frame	right	200	0	0					1329.49615829		nogo	1
SPC3_314	2015_Apr_15_1400	LL-Jerry	AO	cueing_effect	88	0					1	left	-202.802143201	19.481422282	1.0	1328.45743187		nogo	0
SPC3_314	2015_Apr_15_1400	LL-Jerry	AO	cueing_effect	89	1	frame	left	-200	0	0					1337.68087439		nogo	1
SPC3_314	2015_Apr_15_1400	LL-Jerry	AO	cueing_effect	90	1	frame	right	200	0	1	right	184.090181047	22.8935310986	1.0	679.343655705	 	go	1
SPC3_314	2015_Apr_15_1400	LL-Jerry	AO	cueing_effect	91	1	sound	left			1	left	-213.846674454	-5.43836865479	1.0	521.001877263	 	go	1
SPC3_314	2015_Apr_15_1400	LL-Jerry	AO	cueing_effect	92	1	frame	left	-200	0	1	left	-194.956658793	-3.78651424522	1.0	536.546260118	 	go	1
SPC3_314	2015_Apr_15_1400	LL-Jerry	AO	cueing_effect	93	1	frame	right	200	0	1	right	214.708411483	1.79256785818	1.0	443.551801145	 	go	1
SPC3_314	2015_Apr_15_1400	LL-Jerry	AO	cueing_effect	94	0					1	left	-203.950222449	-22.0227449511	1.0	781.34826012	 	go	1
SPC3_314	2015_Apr_15_1400	LL-Jerry	AO	cueing_effect	95	1	frame	right	200	0	1	right	208.741402485	-18.4882488568	1.0	478.717911988	 	go	1
SPC3_314	2015_Apr_15_1400	LL-Jerry	AO	cueing_effect	96	0					1	left	-203.978318899	-11.2054101817	1.0	1329.77294736		nogo	0
SPC3_314	2015_Apr_15_1400	LL-Jerry	AO	cueing_effect	97	1	sound	right			1	right	188.971106903	-9.59363938063	1.0	303.850051016	 	go	1
SPC3_314	2015_Apr_15_1400	LL-Jerry	AO	cueing_effect	98	1	sound	left			1	left	-200.767374789	-15.5179907917	1.0	404.581721872	 	go	1
SPC3_314	2015_Apr_15_1400	LL-Jerry	AO	cueing_effect	99	1	sound	left			0					1338.31125684		nogo	1
SPC3_314	2015_Apr_15_1400	LL-Jerry	AO	cueing_effect	100	1	sound	right			1	right	214.411542547	6.98342876611	1.0	662.893999368	 	go	1
SPC3_314	2015_Apr_15_1400	LL-Jerry	AO	cueing_effect	101	0					1	left	-195.057954043	8.25760248643	1.0	1330.881631		nogo	0
SPC3_314	2015_Apr_15_1400	LL-Jerry	AO	cueing_effect	102	0					0					1337.70368621		nogo	1
SPC3_314	2015_Apr_15_1400	LL-Jerry	AO	cueing_effect	103	1	sound	right			1	right	204.673140032	-9.54522355631	1.0	654.009321705	 	go	1
SPC3_314	2015_Apr_15_1400	LL-Jerry	AO	cueing_effect	104	0					1	right	212.605349878	-6.88246469158	1.0	537.500198931	 	go	1
SPC3_314	2015_Apr_15_1400	LL-Jerry	AO	cueing_effect	105	1	frame	right	200	0	0					1331.90438896		nogo	1
SPC3_314	2015_Apr_15_1400	LL-Jerry	AO	cueing_effect	106	1	sound	left			1	left	-222.432532138	-2.85778556436	1.0	391.735667363	 	go	1
SPC3_314	2015_Apr_15_1400	LL-Jerry	AO	cueing_effect	107	0					1	left	-178.057355313	19.3309985946	1.0	504.683770239	 	go	1
SPC3_314	2015_Apr_15_1400	LL-Jerry	AO	cueing_effect	108	0					1	left	-205.343534321	8.24878933657	1.0	603.955065832	 	go	1
SPC3_314	2015_Apr_15_1400	LL-Jerry	AO	cueing_effect	109	1	sound	right			1	right	185.501543904	2.65647442847	1.0	486.942550167	 	go	1
SPC3_314	2015_Apr_15_1400	LL-Jerry	AO	cueing_effect	110	0					1	left	-179.337695943	-8.77666143303	1.0	640.831725672	 	go	1
SPC3_314	2015_Apr_15_1400	LL-Jerry	AO	cueing_effect	111	0					1	left	-190.826934471	21.2374904994	1.0	479.475283995	 	go	1
SPC3_314	2015_Apr_15_1400	LL-Jerry	AO	cueing_effect	112	0					1	left	-177.78592953	-6.29301290344	1.0	778.608487919	 	go	1
SPC3_314	2015_Apr_15_1400	LL-Jerry	AO	cueing_effect	113	1	sound	right			1	right	191.811629642	-2.50023802831	1.0	553.691316396	 	go	1
SPC3_314	2015_Apr_15_1400	LL-Jerry	AO	cueing_effect	114	1	sound	right			1	right	211.624264613	20.1643244866	1.0	0.0	 	go	0
SPC3_314	2015_Apr_15_1400	LL-Jerry	AO	cueing_effect	115	1	frame	left	-200	0	0					1329.23951745		nogo	1
SPC3_314	2015_Apr_15_1400	LL-Jerry	AO	cueing_effect	116	0					1	left	-199.885386508	9.59508095812	1.0	1328.58213969		nogo	0
SPC3_314	2015_Apr_15_1400	LL-Jerry	AO	cueing_effect	117	1	sound	left			1	left	-191.952163382	-17.920049811	1.0	514.131534845	 	go	1
SPC3_314	2015_Apr_15_1400	LL-Jerry	AO	cueing_effect	118	0					1	right	193.353752513	3.1172619548	1.0	678.858513013	 	go	1
SPC3_314	2015_Apr_15_1400	LL-Jerry	AO	cueing_effect	119	1	frame	left	-200	0	1	left	-222.015648442	-11.7034654898	1.0	1338.08465488		nogo	0
SPC3_314	2015_Apr_15_1400	LL-Jerry	AO	cueing_effect	120	1	sound	right			1	right	222.540766087	15.6244926849	1.0	690.983314067	 	go	1
SPC3_314	2015_Apr_15_1400	LL-Jerry	AO	cueing_effect	121	0					1	right	179.067212947	-9.60205818276	1.0	825.58991015	 	go	1
SPC3_314	2015_Apr_15_1400	LL-Jerry	AO	cueing_effect	122	1	frame	left	-200	0	1	left	-185.94098641	-20.8913804127	1.0	479.340691119	 	go	1
SPC3_314	2015_Apr_15_1400	LL-Jerry	AO	cueing_effect	123	0					1	left	-195.498788222	11.9424373849	1.0	691.546021029	 	go	1
SPC3_314	2015_Apr_15_1400	LL-Jerry	AO	cueing_effect	124	0					1	right	176.816558656	-11.0745284045	1.0	460.709026083	 	go	1
SPC3_314	2015_Apr_15_1400	LL-Jerry	AO	cueing_effect	125	1	frame	left	-200	0	1	left	-192.618505462	15.6401870624	1.0	490.098267794	 	go	1
SPC3_314	2015_Apr_15_1400	LL-Jerry	AO	cueing_effect	126	0					1	right	220.917187401	-15.9815150346	1.0	597.34098427	 	go	1
SPC3_314	2015_Apr_15_1400	LL-Jerry	AO	cueing_effect	127	1	sound	left			1	left	-201.208016917	18.8894622331	1.0	1338.13940361		nogo	0
SPC3_314	2015_Apr_15_1400	LL-Jerry	AO	cueing_effect	128	1	frame	left	-200	0	1	left	-203.931769747	22.256391492	1.0	458.606481552	 	go	1
SPC3_314	2015_Apr_15_1400	LL-Jerry	AO	cueing_effect	129	1	sound	left			1	left	-222.56626046	-4.59332378749	1.0	486.971825361	 	go	1
SPC3_314	2015_Apr_15_1400	LL-Jerry	AO	cueing_effect	130	1	frame	right	200	0	1	right	219.984398986	4.52331882878	1.0	448.359521106	 	go	1
SPC3_314	2015_Apr_15_1400	LL-Jerry	AO	cueing_effect	131	1	sound	left			1	left	-212.059897031	6.77898044715	1.0	609.548673034	 	go	1
SPC3_314	2015_Apr_15_1400	LL-Jerry	AO	cueing_effect	132	1	sound	right			1	right	193.696708086	-22.7932434525	1.0	378.653503954	 	go	1
SPC3_314	2015_Apr_15_1400	LL-Jerry	AO	cueing_effect	133	0					1	left	-205.106204882	-11.524929282	1.0	632.09608756	 	go	1
SPC3_314	2015_Apr_15_1400	LL-Jerry	AO	cueing_effect	134	1	frame	left	-200	0	1	left	-221.293782954	4.46481700361	1.0	405.609803274	 	go	1
SPC3_314	2015_Apr_15_1400	LL-Jerry	AO	cueing_effect	135	0					1	left	-214.149653818	-5.97218556532	1.0	528.695745394	 	go	1
SPC3_314	2015_Apr_15_1400	LL-Jerry	AO	cueing_effect	136	1	frame	right	200	0	1	right	206.103106262	-4.90445947182	1.0	361.552931368	 	go	1
SPC3_314	2015_Apr_15_1400	LL-Jerry	AO	cueing_effect	137	1	sound	right			1	right	193.314043182	5.38434108879	1.0	517.681147903	 	go	1
SPC3_314	2015_Apr_15_1400	LL-Jerry	AO	cueing_effect	138	1	frame	right	200	0	1	right	189.586700258	-2.89634626538	1.0	706.315163523	 	go	1
SPC3_314	2015_Apr_15_1400	LL-Jerry	AO	cueing_effect	139	1	frame	left	-200	0	1	left	-216.165295547	-18.1102818939	1.0	760.375279933	 	go	1
SPC3_314	2015_Apr_15_1400	LL-Jerry	AO	cueing_effect	140	1	sound	left			1	left	-182.800878342	-2.22675892269	1.0	408.022597432	 	go	1
SPC3_314	2015_Apr_15_1400	LL-Jerry	AO	cueing_effect	141	0					1	left	-208.570912348	-12.162711252	1.0	470.94305791	 	go	1
SPC3_314	2015_Apr_15_1400	LL-Jerry	AO	cueing_effect	142	1	frame	left	-200	0	1	left	-211.586562359	-1.311651214	1.0	0.0	 	go	0
SPC3_314	2015_Apr_15_1400	LL-Jerry	AO	cueing_effect	143	1	sound	right			1	right	189.385239553	14.7834622663	1.0	526.832351461	 	go	1
SPC3_314	2015_Apr_15_1400	LL-Jerry	AO	cueing_effect	144	1	frame	right	200	0	1	right	195.606484812	15.1798407513	1.0	0.0	 	go	0
SPC3_314	2015_Apr_15_1400	LL-Jerry	AO	cueing_effect	145	1	sound	left			1	left	-195.252100141	2.60348267236	1.0	412.800658494	 	go	1
SPC3_314	2015_Apr_15_1400	LL-Jerry	AO	cueing_effect	146	0					0					1329.62922938		nogo	1
SPC3_314	2015_Apr_15_1400	LL-Jerry	AO	cueing_effect	147	1	sound	right			1	right	184.267932443	1.80013606716	1.0	511.157555506	 	go	1
SPC3_314	2015_Apr_15_1400	LL-Jerry	AO	cueing_effect	148	1	frame	left	-200	0	1	left	-220.294138951	18.6690893799	1.0	1329.27107438		nogo	0
SPC3_314	2015_Apr_15_1400	LL-Jerry	AO	cueing_effect	149	1	sound	right			1	right	186.031322351	10.2846317178	1.0	544.362936169	 	go	1
SPC3_314	2015_Apr_15_1400	LL-Jerry	AO	cueing_effect	150	0					1	left	-183.409455548	-4.25125922462	1.0	546.916026622	 	go	1
SPC3_314	2015_Apr_15_1400	LL-Jerry	AO	cueing_effect	151	1	frame	right	200	0	1	right	209.772799951	-6.25530694103	1.0	1050.83443969	 	go	1
SPC3_314	2015_Apr_15_1400	LL-Jerry	AO	cueing_effect	152	0					1	right	219.339564088	-13.8632033935	1.0	419.470630586	 	go	1
SPC3_314	2015_Apr_15_1400	LL-Jerry	AO	cueing_effect	153	0					1	right	181.374798903	-7.25693686058	1.0	519.425537437	 	go	1
SPC3_314	2015_Apr_15_1400	LL-Jerry	AO	cueing_effect	154	0					1	left	-205.681649605	-11.4136970067	1.0	409.738469869	 	go	1
SPC3_314	2015_Apr_15_1400	LL-Jerry	AO	cueing_effect	155	1	frame	right	200	0	1	right	205.637110813	-3.73988126469	1.0	470.698963851	 	go	1
SPC3_314	2015_Apr_15_1400	LL-Jerry	AO	cueing_effect	156	1	frame	left	-200	0	1	left	-194.024557092	-22.7022837909	1.0	323.074461892	 	go	1
SPC3_314	2015_Apr_15_1400	LL-Jerry	AO	cueing_effect	157	1	sound	left			1	left	-207.29310756	-15.4644301222	1.0	349.025111645	 	go	1
SPC3_314	2015_Apr_15_1400	LL-Jerry	AO	cueing_effect	158	0					0					1338.01773749		nogo	1
SPC3_314	2015_Apr_15_1400	LL-Jerry	AO	cueing_effect	159	1	sound	left			1	left	-189.974289304	-20.7024324869	1.0	409.748354927	 	go	1
SPC3_314	2015_Apr_15_1400	LL-Jerry	AO	cueing_effect	160	1	sound	left			1	left	-218.718531616	4.90602636104	1.0	441.413138062	 	go	1
SPC3_314	2015_Apr_15_1400	LL-Jerry	AO	cueing_effect	161	1	sound	left			1	left	-222.343756928	8.68662776166	1.0	459.495024756	 	go	1
SPC3_314	2015_Apr_15_1400	LL-Jerry	AO	cueing_effect	162	1	sound	right			1	right	211.866073484	-21.8309385238	1.0	442.788347602	 	go	1
SPC3_314	2015_Apr_15_1400	LL-Jerry	AO	cueing_effect	163	0					0					1337.99416386		nogo	1
SPC3_314	2015_Apr_15_1400	LL-Jerry	AO	cueing_effect	164	1	sound	right			1	right	181.447911056	-4.97503790123	1.0	404.305690899	 	go	1
SPC3_314	2015_Apr_15_1400	LL-Jerry	AO	cueing_effect	165	0					1	left	-208.923522863	-23.199137195	1.0	869.511805475	 	go	1
SPC3_314	2015_Apr_15_1400	LL-Jerry	AO	cueing_effect	166	0					1	left	-204.301536379	-4.88235031891	1.0	519.649859518	 	go	1
SPC3_314	2015_Apr_15_1400	LL-Jerry	AO	cueing_effect	167	0					1	left	-195.139931276	-2.14719029563	1.0	584.780083969	 	go	1
SPC3_314	2015_Apr_15_1400	LL-Jerry	AO	cueing_effect	168	1	frame	left	-200	0	1	left	-210.725775047	-17.5145906497	1.0	428.632859141	 	go	1
SPC3_314	2015_Apr_15_1400	LL-Jerry	AO	cueing_effect	169	1	frame	left	-200	0	1	left	-222.798790482	7.31478993916	1.0	224.436590448	 	go	1
SPC3_314	2015_Apr_15_1400	LL-Jerry	AO	cueing_effect	170	0					0					1328.91405933		nogo	1
SPC3_314	2015_Apr_15_1400	LL-Jerry	AO	cueing_effect	171	1	sound	left			1	left	-210.184826633	-13.9834479195	1.0	338.968634605	 	go	1
SPC3_314	2015_Apr_15_1400	LL-Jerry	AO	cueing_effect	172	1	frame	right	200	0	1	right	222.678381543	20.5858875669	1.0	432.579409331	 	go	1
SPC3_314	2015_Apr_15_1400	LL-Jerry	AO	cueing_effect	173	1	sound	left			0					1338.01431395		nogo	1
SPC3_314	2015_Apr_15_1400	LL-Jerry	AO	cueing_effect	174	1	frame	left	-200	0	1	left	-200.579244356	16.8996909456	1.0	549.194607884	 	go	1
SPC3_314	2015_Apr_15_1400	LL-Jerry	AO	cueing_effect	175	1	sound	left			1	left	-211.349407789	-4.92615551825	1.0	653.482735157	 	go	1
SPC3_314	2015_Apr_15_1400	LL-Jerry	AO	cueing_effect	176	0					1	left	-188.074501634	21.4517705322	1.0	563.054295257	 	go	1
SPC3_314	2015_Apr_15_1400	LL-Jerry	AO	cueing_effect	177	1	frame	left	-200	0	1	left	-184.6712745	-0.947987534049	1.0	0.0	 	go	0
SPC3_314	2015_Apr_15_1400	LL-Jerry	AO	cueing_effect	178	0					1	left	-182.575151999	1.82891638732	1.0	630.204940215	 	go	1
SPC3_314	2015_Apr_15_1400	LL-Jerry	AO	cueing_effect	179	0					1	right	203.080658531	-16.1443687509	1.0	853.546531871	 	go	1
SPC3_314	2015_Apr_15_1400	LL-Jerry	AO	cueing_effect	180	1	frame	left	-200	0	1	left	-197.958317348	-20.1076891341	1.0	679.155072197	 	go	1
SPC3_314	2015_Apr_15_1400	LL-Jerry	AO	cueing_effect	181	0					1	left	-188.823193026	-4.52812434429	1.0	387.169001624	 	go	1
SPC3_314	2015_Apr_15_1400	LL-Jerry	AO	cueing_effect	182	0					0					1330.2322384		nogo	1
SPC3_314	2015_Apr_15_1400	LL-Jerry	AO	cueing_effect	183	1	sound	right			1	right	206.431010742	-23.3718840711	1.0	405.816255137	 	go	1
SPC3_314	2015_Apr_15_1400	LL-Jerry	AO	cueing_effect	184	0					1	right	189.843074074	-21.7104074226	1.0	470.54878436	 	go	1
SPC3_314	2015_Apr_15_1400	LL-Jerry	AO	cueing_effect	185	1	frame	right	200	0	1	right	191.186132716	0.406258095373	1.0	400.312758982	 	go	1
SPC3_314	2015_Apr_15_1400	LL-Jerry	AO	cueing_effect	186	0					1	left	-183.381574923	-3.58214458755	1.0	476.160639897	 	go	1
SPC3_314	2015_Apr_15_1400	LL-Jerry	AO	cueing_effect	187	0					1	left	-210.417598793	-11.0043492292	1.0	420.561444014	 	go	1
SPC3_314	2015_Apr_15_1400	LL-Jerry	AO	cueing_effect	188	1	sound	left			1	left	-214.310762765	-2.40301852468	1.0	515.58050327	 	go	1
SPC3_314	2015_Apr_15_1400	LL-Jerry	AO	cueing_effect	189	0					1	left	-190.961532751	8.76875742277	1.0	515.702551231	 	go	1
SPC3_314	2015_Apr_15_1400	LL-Jerry	AO	cueing_effect	190	0					0					1331.07857779		nogo	1
SPC3_314	2015_Apr_15_1400	LL-Jerry	AO	cueing_effect	191	0					1	left	-194.20129718	-11.3082619837	1.0	437.020607293	 	go	1
SPC3_314	2015_Apr_15_1400	LL-Jerry	AO	cueing_effect	192	1	sound	right			0					1329.57676239		nogo	1
SPC3_314	2015_Apr_15_1400	LL-Jerry	AO	cueing_effect	193	0					1	right	200.411683542	2.60121150456	1.0	701.814653352	 	go	1
SPC3_314	2015_Apr_15_1400	LL-Jerry	AO	cueing_effect	194	0					1	right	184.598731542	-17.710966534	1.0	462.457597256	 	go	1
SPC3_314	2015_Apr_15_1400	LL-Jerry	AO	cueing_effect	195	0					1	left	-185.973617104	-18.538027005	1.0	471.027083695	 	go	1
SPC3_314	2015_Apr_15_1400	LL-Jerry	AO	cueing_effect	196	0					1	right	179.03727692	8.82623076611	1.0	573.706556112	 	go	1
SPC3_314	2015_Apr_15_1400	LL-Jerry	AO	cueing_effect	197	0					1	right	198.931344952	22.7770134523	1.0	631.231117994	 	go	1
SPC3_314	2015_Apr_15_1400	LL-Jerry	AO	cueing_effect	198	1	sound	right			1	right	181.653935323	-12.0545093979	1.0	1328.89542915		nogo	0
SPC3_314	2015_Apr_15_1400	LL-Jerry	AO	cueing_effect	199	0					1	left	-180.632075084	-12.6229277409	1.0	474.122349173	 	go	1
SPC3_314	2015_Apr_15_1400	LL-Jerry	AO	cueing_effect	200	0					1	left	-206.664079535	19.7890879076	1.0	478.697000071	 	go	1
SPC3_314	2015_Apr_15_1400	LL-Jerry	AO	cueing_effect	201	0					1	right	221.929142742	-15.8300179183	1.0	477.253355086	 	go	1
SPC3_314	2015_Apr_15_1400	LL-Jerry	AO	cueing_effect	202	1	sound	right			1	right	192.275090982	9.80999562862	1.0	441.557236016	 	go	1
SPC3_314	2015_Apr_15_1400	LL-Jerry	AO	cueing_effect	203	0					1	right	209.042956171	-10.7999379867	1.0	459.514794871	 	go	1
SPC3_314	2015_Apr_15_1400	LL-Jerry	AO	cueing_effect	204	0					1	right	188.527812892	20.804573862	1.0	471.345316619	 	go	1
SPC3_314	2015_Apr_15_1400	LL-Jerry	AO	cueing_effect	205	1	frame	right	200	0	1	right	198.287285667	-16.8220867977	1.0	356.841027737	 	go	1
SPC3_314	2015_Apr_15_1400	LL-Jerry	AO	cueing_effect	206	1	sound	left			1	left	-215.937675267	13.3292779577	1.0	437.452141196	 	go	1
SPC3_314	2015_Apr_15_1400	LL-Jerry	AO	cueing_effect	207	1	frame	left	-200	0	1	left	-198.459478429	2.99222693327	1.0	479.366924614	 	go	1
SPC3_314	2015_Apr_15_1400	LL-Jerry	AO	cueing_effect	208	1	frame	right	200	0	1	right	190.205765296	-4.87387048218	1.0	305.592540652	 	go	1
SPC3_314	2015_Apr_15_1400	LL-Jerry	AO	cueing_effect	209	1	sound	left			1	left	-209.588466213	-9.32839755799	1.0	435.015395284	 	go	1
SPC3_314	2015_Apr_15_1400	LL-Jerry	AO	cueing_effect	210	1	sound	right			1	right	201.885987963	-18.3791132956	1.0	184.136165306	 	go	1
SPC3_314	2015_Apr_15_1400	LL-Jerry	AO	cueing_effect	211	1	frame	left	-200	0	1	left	-201.580151316	-10.5880676235	1.0	11.9506660849	 	go	1
SPC3_314	2015_Apr_15_1400	LL-Jerry	AO	cueing_effect	212	1	frame	left	-200	0	1	left	-194.863807847	-5.57940691221	1.0	370.806030929	 	go	1
SPC3_314	2015_Apr_15_1400	LL-Jerry	AO	cueing_effect	213	1	sound	right			1	right	198.239116011	0.424990847314	1.0	363.109499216	 	go	1
SPC3_314	2015_Apr_15_1400	LL-Jerry	AO	cueing_effect	214	0					1	right	207.340950598	17.3408661748	1.0	672.163827345	 	go	1
SPC3_314	2015_Apr_15_1400	LL-Jerry	AO	cueing_effect	215	0					1	right	187.764201681	-21.8415826055	1.0	517.844635993	 	go	1
SPC3_314	2015_Apr_15_1400	LL-Jerry	AO	cueing_effect	216	0					0					1338.62226643		nogo	1
SPC3_314	2015_Apr_15_1400	LL-Jerry	AO	cueing_effect	217	0					1	right	221.279117556	-10.2224445502	1.0	527.136897668	 	go	1
SPC3_314	2015_Apr_15_1400	LL-Jerry	AO	cueing_effect	218	0					1	right	208.114349093	21.9405426878	1.0	1330.3219676		nogo	0
SPC3_314	2015_Apr_15_1400	LL-Jerry	AO	cueing_effect	219	1	frame	left	-200	0	1	left	-185.082833017	0.176665263977	1.0	375.822482631	 	go	1
SPC3_314	2015_Apr_15_1400	LL-Jerry	AO	cueing_effect	220	1	sound	right			1	right	200.271866956	-3.54104875964	1.0	957.52212964	 	go	1
SPC3_314	2015_Apr_15_1400	LL-Jerry	AO	cueing_effect	221	0					1	left	-182.912589496	-15.3935661786	1.0	588.009944186	 	go	1
SPC3_314	2015_Apr_15_1400	LL-Jerry	AO	cueing_effect	222	0					1	left	-188.306210099	1.69192509503	1.0	432.147113606	 	go	1
SPC3_314	2015_Apr_15_1400	LL-Jerry	AO	cueing_effect	223	1	sound	left			1	left	-182.631816866	15.1251220048	1.0	489.039013162	 	go	1
SPC3_314	2015_Apr_15_1400	LL-Jerry	AO	cueing_effect	224	1	frame	left	-200	0	0					1329.5463454		nogo	1
SPC3_314	2015_Apr_15_1400	LL-Jerry	AO	cueing_effect	225	1	frame	right	200	0	1	right	183.94151686	11.4809349784	1.0	471.04191035	 	go	1
SPC3_314	2015_Apr_15_1400	LL-Jerry	AO	cueing_effect	226	1	sound	right			1	right	220.33474271	6.97278068308	1.0	694.358792156	 	go	1
SPC3_314	2015_Apr_15_1400	LL-Jerry	AO	cueing_effect	227	1	sound	left			1	left	-178.183978872	17.9558692379	1.0	412.740206346	 	go	1
SPC3_314	2015_Apr_15_1400	LL-Jerry	AO	cueing_effect	228	0					0					1338.69336545		nogo	1
SPC3_314	2015_Apr_15_1400	LL-Jerry	AO	cueing_effect	229	1	frame	left	-200	0	1	left	-187.938855189	18.9417501797	1.0	440.420418978	 	go	1
SPC3_314	2015_Apr_15_1400	LL-Jerry	AO	cueing_effect	230	1	frame	right	200	0	1	right	208.389432026	7.90466260705	1.0	494.222374633	 	go	1
SPC3_314	2015_Apr_15_1400	LL-Jerry	AO	cueing_effect	231	1	sound	right			0					1337.57099323		nogo	1
SPC3_314	2015_Apr_15_1400	LL-Jerry	AO	cueing_effect	232	0					1	left	-189.913575347	-22.0542106207	1.0	1332.41196536		nogo	0
SPC3_314	2015_Apr_15_1400	LL-Jerry	AO	cueing_effect	233	0					1	left	-218.94960779	21.167813221	1.0	483.070140705	 	go	1
SPC3_314	2015_Apr_15_1400	LL-Jerry	AO	cueing_effect	234	1	sound	left			1	left	-177.059898589	-11.3203889965	1.0	495.878174901	 	go	1
SPC3_314	2015_Apr_15_1400	LL-Jerry	AO	cueing_effect	235	1	frame	left	-200	0	0					1330.48735745		nogo	1
SPC3_314	2015_Apr_15_1400	LL-Jerry	AO	cueing_effect	236	1	frame	right	200	0	1	right	219.755041723	-2.03059444649	1.0	441.081598401	 	go	1
SPC3_314	2015_Apr_15_1400	LL-Jerry	AO	cueing_effect	237	1	sound	right			1	right	198.408174739	-13.0999019963	1.0	528.708672151	 	go	1
SPC3_314	2015_Apr_15_1400	LL-Jerry	AO	cueing_effect	238	1	frame	left	-200	0	1	left	-219.891007965	-10.4689081377	1.0	354.41112332	 	go	1
SPC3_314	2015_Apr_15_1400	LL-Jerry	AO	cueing_effect	239	1	frame	left	-200	0	1	left	-222.154592671	-23.0708674809	1.0	421.536674723	 	go	1
SPC3_314	2015_Apr_15_1400	LL-Jerry	AO	cueing_effect	240	1	frame	left	-200	0	0					1329.80146445		nogo	1
SPC3_314	2015_Apr_15_1400	LL-Jerry	AO	cueing_effect	241	0					1	left	-180.732264755	-14.022292414	1.0	535.933747888	 	go	1
SPC3_314	2015_Apr_15_1400	LL-Jerry	AO	cueing_effect	242	1	sound	left			1	left	-182.513508524	9.24550853345	1.0	551.1439275	 	go	1
SPC3_314	2015_Apr_15_1400	LL-Jerry	AO	cueing_effect	243	1	sound	left			1	left	-195.925009478	-13.526842698	1.0	361.881811172	 	go	1
SPC3_314	2015_Apr_15_1400	LL-Jerry	AO	cueing_effect	244	0					1	left	-187.824411845	15.1089059688	1.0	1337.92762831		nogo	0
SPC3_314	2015_Apr_15_1400	LL-Jerry	AO	cueing_effect	245	0					1	right	206.130622245	-8.78828894123	1.0	446.511713788	 	go	1
SPC3_314	2015_Apr_15_1400	LL-Jerry	AO	cueing_effect	246	0					1	right	202.081306772	-6.65663944268	1.0	1037.80778684	 	go	1
SPC3_314	2015_Apr_15_1400	LL-Jerry	AO	cueing_effect	247	1	frame	right	200	0	1	right	182.682567878	13.4037403668	1.0	407.172074541	 	go	1
SPC3_314	2015_Apr_15_1400	LL-Jerry	AO	cueing_effect	248	1	sound	right			1	right	185.187110693	-12.6868187948	1.0	1325.47736913		nogo	0
SPC3_314	2015_Apr_15_1400	LL-Jerry	AO	cueing_effect	249	1	frame	right	200	0	1	right	182.38740379	-4.45841750062	1.0	497.563632205	 	go	1
SPC3_314	2015_Apr_15_1400	LL-Jerry	AO	cueing_effect	250	0					1	left	-179.294983194	-5.55974371901	1.0	679.049756378	 	go	1
SPC3_314	2015_Apr_15_1400	LL-Jerry	AO	cueing_effect	251	0					1	left	-195.21756407	-14.523025013	1.0	620.972750708	 	go	1
SPC3_314	2015_Apr_15_1400	LL-Jerry	AO	cueing_effect	252	1	sound	right			0					1330.26873693		nogo	1
SPC3_314	2015_Apr_15_1400	LL-Jerry	AO	cueing_effect	253	1	frame	right	200	0	1	right	208.146260384	19.8817224191	1.0	526.179153472	 	go	1
SPC3_314	2015_Apr_15_1400	LL-Jerry	AO	cueing_effect	254	1	sound	right			1	right	182.257363057	18.2996540564	1.0	723.695186898	 	go	1
SPC3_314	2015_Apr_15_1400	LL-Jerry	AO	cueing_effect	255	1	sound	left			1	left	-191.065673566	-8.8143416176	1.0	493.864599615	 	go	1
SPC3_314	2015_Apr_15_1400	LL-Jerry	AO	cueing_effect	256	0					1	right	217.22927093	3.66414051788	1.0	625.518888235	 	go	1
SPC3_314	2015_Apr_15_1400	LL-Jerry	AO	cueing_effect	257	1	sound	left			1	left	-212.719569555	22.6956649731	1.0	439.65620175	 	go	1
SPC3_314	2015_Apr_15_1400	LL-Jerry	AO	cueing_effect	258	0					1	right	215.116672023	21.3233948366	1.0	1329.43380252		nogo	0
SPC3_314	2015_Apr_15_1400	LL-Jerry	AO	cueing_effect	259	1	sound	left			1	left	-200.861488133	-15.7091123266	1.0	495.446261019	 	go	1
SPC3_314	2015_Apr_15_1400	LL-Jerry	AO	cueing_effect	260	1	sound	left			1	left	-205.208841501	-1.330413914	1.0	463.956374675	 	go	1
SPC3_314	2015_Apr_15_1400	LL-Jerry	AO	cueing_effect	261	0					1	left	-221.386391896	-19.9041720242	1.0	382.750995457	 	go	1
SPC3_314	2015_Apr_15_1400	LL-Jerry	AO	cueing_effect	262	1	sound	right			1	right	211.707647355	6.14171306532	1.0	528.111746535	 	go	1
SPC3_314	2015_Apr_15_1400	LL-Jerry	AO	cueing_effect	263	1	sound	left			1	left	-222.233747006	8.32976272775	1.0	1338.20441924		nogo	0
SPC3_314	2015_Apr_15_1400	LL-Jerry	AO	cueing_effect	264	1	sound	right			0					576.899914071	 	go	0
SPC3_314	2015_Apr_15_1400	LL-Jerry	AO	cueing_effect	265	0					1	left	-211.661388324	20.4348423096	1.0	515.351999551	 	go	1
SPC3_314	2015_Apr_15_1400	LL-Jerry	AO	cueing_effect	266	0					1	right	212.54045164	-15.5219923269	1.0	417.210679501	 	go	1
SPC3_314	2015_Apr_15_1400	LL-Jerry	AO	cueing_effect	267	1	frame	right	200	0	1	right	180.15541052	-3.80179560772	1.0	376.819765195	 	go	1
SPC3_314	2015_Apr_15_1400	LL-Jerry	AO	cueing_effect	268	1	frame	left	-200	0	1	left	-203.526510794	-13.9807867881	1.0	388.837728649	 	go	1
SPC3_314	2015_Apr_15_1400	LL-Jerry	AO	cueing_effect	269	1	frame	right	200	0	1	right	186.916415695	-5.96782501464	1.0	322.782462463	 	go	1
SPC3_314	2015_Apr_15_1400	LL-Jerry	AO	cueing_effect	270	1	sound	left			1	left	-189.587451902	20.6484777682	1.0	345.55648081	 	go	1
SPC3_314	2015_Apr_15_1400	LL-Jerry	AO	cueing_effect	271	1	sound	right			1	right	197.729610218	-20.0261227027	1.0	349.563483149	 	go	1
SPC3_314	2015_Apr_15_1400	LL-Jerry	AO	cueing_effect	272	1	sound	right			0					1337.84740604		nogo	1
SPC3_314	2015_Apr_15_1400	LL-Jerry	AO	cueing_effect	273	1	sound	left			1	left	-193.508603261	0.989852445392	1.0	418.075270951	 	go	1
SPC3_314	2015_Apr_15_1400	LL-Jerry	AO	cueing_effect	274	0					1	right	216.751450919	10.4701016208	1.0	579.364795238	 	go	1
SPC3_314	2015_Apr_15_1400	LL-Jerry	AO	cueing_effect	275	1	frame	left	-200	0	1	left	-217.645616752	-2.63814357013	1.0	381.30620867	 	go	1
SPC3_314	2015_Apr_15_1400	LL-Jerry	AO	cueing_effect	276	0					1	left	-204.795574024	-2.61487455265	1.0	615.924363956	 	go	1
SPC3_314	2015_Apr_15_1400	LL-Jerry	AO	cueing_effect	277	1	frame	right	200	0	1	right	183.326382236	12.3991480919	1.0	427.791461349	 	go	1
SPC3_314	2015_Apr_15_1400	LL-Jerry	AO	cueing_effect	278	1	frame	right	200	0	1	right	219.125349492	-9.94998214496	1.0	356.960412115	 	go	1
SPC3_314	2015_Apr_15_1400	LL-Jerry	AO	cueing_effect	279	1	sound	left			1	left	-214.782223219	-3.90833167781	1.0	667.469030246	 	go	1
SPC3_314	2015_Apr_15_1400	LL-Jerry	AO	cueing_effect	280	1	frame	right	200	0	1	right	192.22094985	-17.2096422164	1.0	412.108680233	 	go	1
SPC3_314	2015_Apr_15_1400	LL-Jerry	AO	cueing_effect	281	1	sound	left			0					1330.21056652		nogo	1
SPC3_314	2015_Apr_15_1400	LL-Jerry	AO	cueing_effect	282	1	sound	right			0					1329.69766669		nogo	1
SPC3_314	2015_Apr_15_1400	LL-Jerry	AO	cueing_effect	283	1	sound	left			1	left	-186.893401883	7.67891966415	1.0	515.501419082	 	go	1
SPC3_314	2015_Apr_15_1400	LL-Jerry	AO	cueing_effect	284	1	sound	right			1	right	194.787573878	-13.2944016897	1.0	525.445355102	 	go	1
SPC3_314	2015_Apr_15_1400	LL-Jerry	AO	cueing_effect	285	1	sound	right			1	right	189.588127516	13.6167867363	1.0	710.341176018	 	go	1
SPC3_314	2015_Apr_15_1400	LL-Jerry	AO	cueing_effect	286	0					1	right	176.364597798	7.65669889778	1.0	528.672933578	 	go	1
SPC3_314	2015_Apr_15_1400	LL-Jerry	AO	cueing_effect	287	0					1	right	215.712721633	-13.0769556902	1.0	454.049699008	 	go	1
SPC3_314	2015_Apr_15_1400	LL-Jerry	AO	cueing_effect	288	1	frame	right	200	0	1	right	213.115973892	-4.14633130409	1.0	521.323150024	 	go	1
SPC3_314	2015_Apr_15_1400	LL-Jerry	AO	cueing_effect	289	1	frame	right	200	0	1	right	192.203802219	20.8250111506	1.0	617.547087371	 	go	1
SPC3_314	2015_Apr_15_1400	LL-Jerry	AO	cueing_effect	290	1	sound	left			1	left	-189.950493427	20.8323755405	1.0	535.658096895	 	go	1
SPC3_314	2015_Apr_15_1400	LL-Jerry	AO	cueing_effect	291	0					0					1329.41365242		nogo	1
SPC3_314	2015_Apr_15_1400	LL-Jerry	AO	cueing_effect	292	1	sound	right			1	right	211.813773601	-13.2233950933	1.0	357.521977276	 	go	1
SPC3_314	2015_Apr_15_1400	LL-Jerry	AO	cueing_effect	293	1	sound	left			1	left	-213.473777317	14.8045054389	1.0	353.495204821	 	go	1
SPC3_314	2015_Apr_15_1400	LL-Jerry	AO	cueing_effect	294	1	sound	right			1	right	192.659355083	-13.5196966004	1.0	55.0440941006	 	go	1
SPC3_314	2015_Apr_15_1400	LL-Jerry	AO	cueing_effect	295	1	sound	left			1	left	-196.42771692	-6.41748937285	1.0	366.57698825	 	go	1
SPC3_314	2015_Apr_15_1400	LL-Jerry	AO	cueing_effect	296	1	sound	left			1	left	-209.736053802	-3.87093043648	1.0	342.695804313	 	go	1
SPC3_314	2015_Apr_15_1400	LL-Jerry	AO	cueing_effect	297	0					1	right	222.9464672	16.459692428	1.0	437.292834744	 	go	1
SPC3_314	2015_Apr_15_1400	LL-Jerry	AO	cueing_effect	298	1	sound	left			1	left	-215.241580385	19.3232503463	1.0	346.01425007	 	go	1
SPC3_314	2015_Apr_15_1400	LL-Jerry	AO	cueing_effect	299	1	sound	right			1	right	194.326335584	-17.3490563374	1.0	308.034610003	 	go	1
SPC3_314	2015_Apr_15_1400	LL-Jerry	AO	cueing_effect	300	1	sound	right			1	right	218.092849547	11.6219379823	1.0	118.996815756	 	go	1
SPC3_314	2015_Apr_15_1400	LL-Jerry	AO	cueing_effect	301	1	frame	right	200	0	1	right	209.228700586	12.2922106201	1.0	387.628670782	 	go	1
SPC3_314	2015_Apr_15_1400	LL-Jerry	AO	cueing_effect	302	0					1	left	-206.143573296	10.497119332	1.0	419.691149145	 	go	1
SPC3_314	2015_Apr_15_1400	LL-Jerry	AO	cueing_effect	303	1	frame	left	-200	0	0					1337.86755614		nogo	1
SPC3_314	2015_Apr_15_1400	LL-Jerry	AO	cueing_effect	304	1	frame	right	200	0	1	right	183.761759506	1.11162908855	1.0	404.142202809	 	go	1
SPC3_314	2015_Apr_15_1400	LL-Jerry	AO	cueing_effect	305	0					0					1330.09080216		nogo	1
SPC3_314	2015_Apr_15_1400	LL-Jerry	AO	cueing_effect	306	1	sound	right			1	right	195.05557807	-13.9016342509	1.0	515.486212447	 	go	1
SPC3_314	2015_Apr_15_1400	LL-Jerry	AO	cueing_effect	307	1	sound	right			1	right	176.700414073	17.9636862911	1.0	412.680894136	 	go	1
SPC3_314	2015_Apr_15_1400	LL-Jerry	AO	cueing_effect	308	1	sound	left			1	left	-196.357911877	-6.20409899006	1.0	386.312395334	 	go	1
SPC3_314	2015_Apr_15_1400	LL-Jerry	AO	cueing_effect	309	0					0					194.504791871	 	go	0
SPC3_314	2015_Apr_15_1400	LL-Jerry	AO	cueing_effect	310	1	frame	right	200	0	0					1333.95750634		nogo	1
SPC3_314	2015_Apr_15_1400	LL-Jerry	AO	cueing_effect	311	1	frame	left	-200	0	1	left	-220.251834226	-9.10601457351	1.0	437.393968925	 	go	1
SPC3_314	2015_Apr_15_1400	LL-Jerry	AO	cueing_effect	312	1	sound	left			0					1338.70781213		nogo	1
SPC3_314	2015_Apr_15_1400	LL-Jerry	AO	cueing_effect	313	1	frame	right	200	0	1	right	207.901517626	11.5350524767	1.0	471.065483987	 	go	1
SPC3_314	2015_Apr_15_1400	LL-Jerry	AO	cueing_effect	314	1	frame	right	200	0	1	right	183.661312794	5.96303138179	1.0	294.48175244	 	go	1
SPC3_314	2015_Apr_15_1400	LL-Jerry	AO	cueing_effect	315	1	sound	right			1	right	194.330984347	8.14201494764	1.0	370.866103098	 	go	1
SPC3_314	2015_Apr_15_1400	LL-Jerry	AO	cueing_effect	316	0					1	right	194.75968255	20.2367340804	1.0	430.470399559	 	go	1
SPC3_314	2015_Apr_15_1400	LL-Jerry	AO	cueing_effect	317	1	sound	left			1	left	-190.879350311	-22.5966590808	1.0	565.226797014	 	go	1
SPC3_314	2015_Apr_15_1400	LL-Jerry	AO	cueing_effect	318	1	sound	left			1	left	-199.286952253	-6.6282453282	1.0	327.883698046	 	go	1
SPC3_314	2015_Apr_15_1400	LL-Jerry	AO	cueing_effect	319	1	frame	right	200	0	1	right	193.712172145	21.7304069955	1.0	332.312351093	 	go	1
SPC3_314	2015_Apr_15_1400	LL-Jerry	AO	cueing_effect	320	1	frame	left	-200	0	1	left	-211.212738698	3.96686783601	1.0	172.057369724	 	go	1
SPC3_314	2015_Apr_15_1400	LL-Jerry	AO	cueing_effect	321	1	sound	right			1	right	197.925145524	22.078924811	1.0	412.326918915	 	go	1
SPC3_314	2015_Apr_15_1400	LL-Jerry	AO	cueing_effect	322	0					0					1330.28242551		nogo	1
SPC3_314	2015_Apr_15_1400	LL-Jerry	AO	cueing_effect	323	0					0					1328.32055725		nogo	1
SPC3_314	2015_Apr_15_1400	LL-Jerry	AO	cueing_effect	324	0					1	left	-195.927753741	14.109173113	1.0	494.865303859	 	go	1
SPC3_314	2015_Apr_15_1400	LL-Jerry	AO	cueing_effect	325	1	sound	right			1	right	208.699373525	-1.71262397539	1.0	521.004157141	 	go	1
SPC3_314	2015_Apr_15_1400	LL-Jerry	AO	cueing_effect	326	1	frame	right	200	0	1	right	222.302910872	0.937235841172	1.0	456.649174914	 	go	1
SPC3_314	2015_Apr_15_1400	LL-Jerry	AO	cueing_effect	327	0					1	left	-207.153158854	6.45523418108	1.0	440.748155117	 	go	1
SPC3_314	2015_Apr_15_1400	LL-Jerry	AO	cueing_effect	328	0					1	left	-219.848845723	-6.60449755685	1.0	572.240475565	 	go	1
SPC3_314	2015_Apr_15_1400	LL-Jerry	AO	cueing_effect	329	0					1	left	-207.262062804	-16.9268619011	1.0	488.92647028	 	go	1
SPC3_314	2015_Apr_15_1400	LL-Jerry	AO	cueing_effect	330	1	frame	right	200	0	1	right	196.852498119	14.7060298296	1.0	337.507879362	 	go	1
SPC3_314	2015_Apr_15_1400	LL-Jerry	AO	cueing_effect	331	1	sound	right			1	right	192.856374613	1.90392525499	1.0	388.751043007	 	go	1
SPC3_314	2015_Apr_15_1400	LL-Jerry	AO	cueing_effect	332	0					1	left	-204.288719391	-9.90064474214	1.0	454.180872068	 	go	1
SPC3_314	2015_Apr_15_1400	LL-Jerry	AO	cueing_effect	333	1	frame	left	-200	0	1	left	-197.869412332	0.871174939701	1.0	371.059250087	 	go	1
SPC3_314	2015_Apr_15_1400	LL-Jerry	AO	cueing_effect	334	1	frame	right	200	0	1	right	208.182920698	17.2243173279	1.0	358.009021729	 	go	1
SPC3_314	2015_Apr_15_1400	LL-Jerry	AO	cueing_effect	335	1	frame	left	-200	0	1	left	-183.204719742	11.8289040981	1.0	328.079886734	 	go	1
SPC3_314	2015_Apr_15_1400	LL-Jerry	AO	cueing_effect	336	1	frame	right	200	0	1	right	190.066682394	-17.1042412131	1.0	405.481673777	 	go	1
SPC3_314	2015_Apr_15_1400	LL-Jerry	AO	cueing_effect	337	1	frame	right	200	0	1	right	219.742040222	-16.803518342	1.0	344.65120919	 	go	1
SPC3_314	2015_Apr_15_1400	LL-Jerry	AO	cueing_effect	338	1	sound	right			0					1337.82725409		nogo	1
SPC3_314	2015_Apr_15_1400	LL-Jerry	AO	cueing_effect	339	0					0					1339.58913386		nogo	1
SPC3_314	2015_Apr_15_1400	LL-Jerry	AO	cueing_effect	340	0					0					1329.99194786		nogo	1
SPC3_314	2015_Apr_15_1400	LL-Jerry	AO	cueing_effect	341	1	frame	right	200	0	1	right	222.717122137	2.96281871991	1.0	562.515920028	 	go	1
SPC3_314	2015_Apr_15_1400	LL-Jerry	AO	cueing_effect	342	1	sound	right			1	right	193.616671022	-5.31108653451	1.0	387.327546254	 	go	1
SPC3_314	2015_Apr_15_1400	LL-Jerry	AO	cueing_effect	343	0					1	right	207.664898471	-2.64056126972	1.0	380.113881081	 	go	1
SPC3_314	2015_Apr_15_1400	LL-Jerry	AO	cueing_effect	344	1	frame	left	-200	0	1	left	-193.491206421	-13.6910709132	1.0	378.437926993	 	go	1
SPC3_314	2015_Apr_15_1400	LL-Jerry	AO	cueing_effect	345	1	sound	left			0					1330.07559367		nogo	1
SPC3_314	2015_Apr_15_1400	LL-Jerry	AO	cueing_effect	346	0					1	right	214.905324013	8.06365964759	1.0	688.142787665	 	go	1
SPC3_314	2015_Apr_15_1400	LL-Jerry	AO	cueing_effect	347	1	frame	left	-200	0	1	left	-182.723149035	-7.20519383634	1.0	317.703656852	 	go	1
SPC3_314	2015_Apr_15_1400	LL-Jerry	AO	cueing_effect	348	0					1	right	222.436246143	-16.9317014693	1.0	470.497075468	 	go	1
SPC3_314	2015_Apr_15_1400	LL-Jerry	AO	cueing_effect	349	0					1	left	-203.519756731	-15.8885200204	1.0	489.432906732	 	go	1
SPC3_314	2015_Apr_15_1400	LL-Jerry	AO	cueing_effect	350	1	frame	left	-200	0	1	left	-184.35168885	-12.4613737445	1.0	346.593307331	 	go	1
SPC3_314	2015_Apr_15_1400	LL-Jerry	AO	cueing_effect	351	0					1	left	-217.253700696	12.8282057974	1.0	512.112636119	 	go	1
SPC3_314	2015_Apr_15_1400	LL-Jerry	AO	cueing_effect	352	0					1	left	-222.508985716	7.7345334791	1.0	570.67896612	 	go	1
SPC3_314	2015_Apr_15_1400	LL-Jerry	AO	cueing_effect	353	1	sound	left			1	left	-184.729946556	-20.8699211263	1.0	391.022019088	 	go	1
SPC3_314	2015_Apr_15_1400	LL-Jerry	AO	cueing_effect	354	1	frame	right	200	0	1	right	211.480449982	17.7410897684	1.0	297.050429508	 	go	1
SPC3_314	2015_Apr_15_1400	LL-Jerry	AO	cueing_effect	355	1	frame	right	200	0	0					187.71391362	 	go	0
SPC3_314	2015_Apr_15_1400	LL-Jerry	AO	cueing_effect	356	1	sound	right			0					1338.72454241		nogo	1
SPC3_314	2015_Apr_15_1400	LL-Jerry	AO	cueing_effect	357	0					1	left	-208.686098822	-10.1689666572	1.0	470.992105082	 	go	1
SPC3_314	2015_Apr_15_1400	LL-Jerry	AO	cueing_effect	358	0					1	right	206.772695516	-15.0491763109	1.0	603.710973635	 	go	1
SPC3_314	2015_Apr_15_1400	LL-Jerry	AO	cueing_effect	359	1	sound	left			1	left	-208.992847228	-11.1358076777	1.0	345.687653869	 	go	1
