subj_id	date	computer	experimenter	part	trial_ix	cue_present	cue_type	cue_loc	cue_pos_x	cue_pos_y	target_present	target_loc	target_pos_x	target_pos_y	target_opacity	rt	key	response	is_correct
SPC_320	2015_Apr_16_0931	LL-Jerry	NS	practice	0	0					1	left	-179.313531301	12.0502638821	1.0	1338.23635615		nogo	0
SPC_320	2015_Apr_16_0931	LL-Jerry	NS	practice	1	0					1	right	212.218367861	4.64733598598	1.0	479.705689475	 	go	1
SPC_320	2015_Apr_16_0931	LL-Jerry	NS	practice	2	0					0					1338.50630373		nogo	1
SPC_320	2015_Apr_16_0931	LL-Jerry	NS	practice	3	0					1	left	-191.729715495	-2.88834654348	1.0	444.833479822	 	go	1
SPC_320	2015_Apr_16_0931	LL-Jerry	NS	practice	4	0					1	left	-217.27652389	14.7113077015	1.0	466.867618263	 	go	1
SPC_320	2015_Apr_16_0931	LL-Jerry	NS	practice	5	0					1	right	190.141155017	-17.6031221854	1.0	504.27960977	 	go	1
SPC_320	2015_Apr_16_0931	LL-Jerry	NS	practice	6	0					1	left	-223.64367346	10.0927510195	1.0	444.67189163	 	go	1
SPC_320	2015_Apr_16_0931	LL-Jerry	NS	practice	7	0					1	right	213.338090603	6.78241856224	1.0	594.038886949	 	go	1
SPC_320	2015_Apr_16_0931	LL-Jerry	NS	practice	8	0					1	right	211.206650784	-12.724066312	1.0	0.0	 	go	0
SPC_320	2015_Apr_16_0931	LL-Jerry	NS	practice	9	0					1	left	-215.537267221	6.88662989532	1.0	423.980645835	 	go	1
SPC_320	2015_Apr_16_0931	LL-Jerry	NS	cueing_effect	0	1	sound	left			1	left	-218.910578187	-2.58535985773	1.0	592.387646437	 	go	1
SPC_320	2015_Apr_16_0931	LL-Jerry	NS	cueing_effect	1	0					0					1338.3211419		nogo	1
SPC_320	2015_Apr_16_0931	LL-Jerry	NS	cueing_effect	2	1	sound	left			1	left	-220.989332983	-6.43666943586	1.0	721.078222618	 	go	1
SPC_320	2015_Apr_16_0931	LL-Jerry	NS	cueing_effect	3	1	frame	right	200	0	1	right	214.762609637	-18.3549694811	1.0	662.245366722	 	go	1
SPC_320	2015_Apr_16_0931	LL-Jerry	NS	cueing_effect	4	0					0					1338.67967874		nogo	1
SPC_320	2015_Apr_16_0931	LL-Jerry	NS	cueing_effect	5	0					0					1338.57626095		nogo	1
SPC_320	2015_Apr_16_0931	LL-Jerry	NS	cueing_effect	6	1	sound	left			1	left	-223.583242865	1.85016923668	1.0	319.637387991	 	go	1
SPC_320	2015_Apr_16_0931	LL-Jerry	NS	cueing_effect	7	0					0					1329.12431471		nogo	1
SPC_320	2015_Apr_16_0931	LL-Jerry	NS	cueing_effect	8	1	sound	left			1	left	-192.270933383	0.761589591268	1.0	488.946620375	 	go	1
SPC_320	2015_Apr_16_0931	LL-Jerry	NS	cueing_effect	9	1	frame	right	200	0	1	right	196.445550044	20.7911834071	1.0	629.230469465	 	go	1
SPC_320	2015_Apr_16_0931	LL-Jerry	NS	cueing_effect	10	1	sound	left			1	left	-190.740652851	-13.8517584691	1.0	437.055205926	 	go	1
SPC_320	2015_Apr_16_0931	LL-Jerry	NS	cueing_effect	11	1	frame	left	-200	0	0					1338.29833008		nogo	1
SPC_320	2015_Apr_16_0931	LL-Jerry	NS	cueing_effect	12	1	frame	left	-200	0	1	left	-199.925563169	-2.98984858948	1.0	406.356910244	 	go	1
SPC_320	2015_Apr_16_0931	LL-Jerry	NS	cueing_effect	13	1	frame	left	-200	0	1	left	-177.2023452	8.40109012957	1.0	412.575574592	 	go	1
SPC_320	2015_Apr_16_0931	LL-Jerry	NS	cueing_effect	14	1	sound	left			1	left	-222.17530084	-14.3198335614	1.0	387.273559347	 	go	1
SPC_320	2015_Apr_16_0931	LL-Jerry	NS	cueing_effect	15	1	frame	right	200	0	1	right	217.277987998	-11.6663417151	1.0	487.157747149	 	go	1
SPC_320	2015_Apr_16_0931	LL-Jerry	NS	cueing_effect	16	1	sound	left			1	left	-196.23458076	9.52489242998	1.0	474.091172218	 	go	1
SPC_320	2015_Apr_16_0931	LL-Jerry	NS	cueing_effect	17	1	sound	right			1	right	219.274100406	-16.475324487	1.0	440.1675798	 	go	1
SPC_320	2015_Apr_16_0931	LL-Jerry	NS	cueing_effect	18	1	sound	left			1	left	-184.1955173	-23.978530677	1.0	472.881734371	 	go	1
SPC_320	2015_Apr_16_0931	LL-Jerry	NS	cueing_effect	19	1	frame	left	-200	0	1	left	-190.343726939	-1.98401364241	1.0	380.940830335	 	go	1
SPC_320	2015_Apr_16_0931	LL-Jerry	NS	cueing_effect	20	1	sound	right			1	right	187.293392747	-21.6292951637	1.0	621.250303462	 	go	1
SPC_320	2015_Apr_16_0931	LL-Jerry	NS	cueing_effect	21	1	sound	left			1	left	-210.575799407	-23.1068730992	1.0	379.974724725	 	go	1
SPC_320	2015_Apr_16_0931	LL-Jerry	NS	cueing_effect	22	1	frame	left	-200	0	1	left	-218.959469379	-4.682851779	1.0	404.272994027	 	go	1
SPC_320	2015_Apr_16_0931	LL-Jerry	NS	cueing_effect	23	1	sound	left			1	left	-182.67732803	9.16129329972	1.0	356.759281829	 	go	1
SPC_320	2015_Apr_16_0931	LL-Jerry	NS	cueing_effect	24	0					1	right	206.353237075	11.417125588	1.0	754.163075238	 	go	1
SPC_320	2015_Apr_16_0931	LL-Jerry	NS	cueing_effect	25	1	frame	left	-200	0	1	left	-214.235326785	2.48015240271	1.0	388.030551374	 	go	1
SPC_320	2015_Apr_16_0931	LL-Jerry	NS	cueing_effect	26	0					1	right	193.995265783	0.776218915391	1.0	516.743175685	 	go	1
SPC_320	2015_Apr_16_0931	LL-Jerry	NS	cueing_effect	27	0					0					1329.05473746		nogo	1
SPC_320	2015_Apr_16_0931	LL-Jerry	NS	cueing_effect	28	1	sound	left			0					1338.83556351		nogo	1
SPC_320	2015_Apr_16_0931	LL-Jerry	NS	cueing_effect	29	1	sound	right			0					1329.38779704		nogo	1
SPC_320	2015_Apr_16_0931	LL-Jerry	NS	cueing_effect	30	1	frame	right	200	0	1	right	206.795962365	13.0304666811	1.0	490.019945428	 	go	1
SPC_320	2015_Apr_16_0931	LL-Jerry	NS	cueing_effect	31	1	sound	left			1	left	-216.322570093	-12.0909969787	1.0	504.324475303	 	go	1
SPC_320	2015_Apr_16_0931	LL-Jerry	NS	cueing_effect	32	1	frame	right	200	0	1	right	207.872998027	16.0343090413	1.0	337.732963264	 	go	1
SPC_320	2015_Apr_16_0931	LL-Jerry	NS	cueing_effect	33	1	frame	right	200	0	1	right	199.828520716	-9.66364240417	1.0	370.491219684	 	go	1
SPC_320	2015_Apr_16_0931	LL-Jerry	NS	cueing_effect	34	1	frame	left	-200	0	1	left	-187.908444431	-10.2361609306	1.0	395.352195948	 	go	1
SPC_320	2015_Apr_16_0931	LL-Jerry	NS	cueing_effect	35	0					1	right	198.691455486	-10.7920704425	1.0	504.469713196	 	go	1
SPC_320	2015_Apr_16_0931	LL-Jerry	NS	cueing_effect	36	1	sound	left			0					1337.80482225		nogo	1
SPC_320	2015_Apr_16_0931	LL-Jerry	NS	cueing_effect	37	0					1	left	-204.739643412	-19.0253317506	1.0	723.801644519	 	go	1
SPC_320	2015_Apr_16_0931	LL-Jerry	NS	cueing_effect	38	1	frame	right	200	0	1	right	194.18189885	16.5836686979	1.0	570.68695128	 	go	1
SPC_320	2015_Apr_16_0931	LL-Jerry	NS	cueing_effect	39	1	frame	right	200	0	1	right	218.232648894	7.14141224105	1.0	504.130188376	 	go	1
SPC_320	2015_Apr_16_0931	LL-Jerry	NS	cueing_effect	40	1	sound	left			1	left	-184.605787551	-13.6094116216	1.0	411.973329261	 	go	1
SPC_320	2015_Apr_16_0931	LL-Jerry	NS	cueing_effect	41	1	frame	right	200	0	1	right	199.448923411	10.915045865	1.0	509.488826618	 	go	1
SPC_320	2015_Apr_16_0931	LL-Jerry	NS	cueing_effect	42	1	frame	left	-200	0	1	left	-199.375133136	22.0003177124	1.0	403.895828873	 	go	1
SPC_320	2015_Apr_16_0931	LL-Jerry	NS	cueing_effect	43	1	sound	left			1	left	-220.186666805	-23.8770967787	1.0	430.758977309	 	go	1
SPC_320	2015_Apr_16_0931	LL-Jerry	NS	cueing_effect	44	0					1	right	218.411135985	-21.6752072127	1.0	613.523356616	 	go	1
SPC_320	2015_Apr_16_0931	LL-Jerry	NS	cueing_effect	45	1	frame	right	200	0	1	right	214.017763785	-5.82101862127	1.0	381.685655564	 	go	1
SPC_320	2015_Apr_16_0931	LL-Jerry	NS	cueing_effect	46	0					0					1328.85284722		nogo	1
SPC_320	2015_Apr_16_0931	LL-Jerry	NS	cueing_effect	47	1	sound	right			1	right	205.840528119	-1.65985937514	1.0	363.83683607	 	go	1
SPC_320	2015_Apr_16_0931	LL-Jerry	NS	cueing_effect	48	1	sound	left			1	left	-209.620031911	-8.77883702184	1.0	434.166772291	 	go	1
SPC_320	2015_Apr_16_0931	LL-Jerry	NS	cueing_effect	49	0					1	left	-192.461269388	-12.2401952213	1.0	620.195610449	 	go	1
SPC_320	2015_Apr_16_0931	LL-Jerry	NS	cueing_effect	50	1	sound	left			0					1328.73346098		nogo	1
SPC_320	2015_Apr_16_0931	LL-Jerry	NS	cueing_effect	51	0					1	left	-207.979067909	-5.95309906859	1.0	615.352531895	 	go	1
SPC_320	2015_Apr_16_0931	LL-Jerry	NS	cueing_effect	52	0					1	left	-188.565919583	10.8791616263	1.0	485.474571586	 	go	1
SPC_320	2015_Apr_16_0931	LL-Jerry	NS	cueing_effect	53	1	frame	right	200	0	1	right	188.688340351	-23.4388957739	1.0	368.682194501	 	go	1
SPC_320	2015_Apr_16_0931	LL-Jerry	NS	cueing_effect	54	1	frame	left	-200	0	1	left	-184.341883068	-14.7984936941	1.0	387.619927526	 	go	1
SPC_320	2015_Apr_16_0931	LL-Jerry	NS	cueing_effect	55	1	sound	left			1	left	-196.078307003	-8.68505960047	1.0	432.603741065	 	go	1
SPC_320	2015_Apr_16_0931	LL-Jerry	NS	cueing_effect	56	1	sound	right			1	right	182.231866558	5.31038187503	1.0	404.89349328	 	go	1
SPC_320	2015_Apr_16_0931	LL-Jerry	NS	cueing_effect	57	1	sound	left			1	left	-221.949164328	4.80847308372	1.0	370.936062187	 	go	1
SPC_320	2015_Apr_16_0931	LL-Jerry	NS	cueing_effect	58	1	frame	right	200	0	1	right	211.258904699	14.9533933776	1.0	411.560043693	 	go	1
SPC_320	2015_Apr_16_0931	LL-Jerry	NS	cueing_effect	59	1	frame	left	-200	0	1	left	-221.20935416	10.4230061964	1.0	337.093453854	 	go	1
SPC_320	2015_Apr_16_0931	LL-Jerry	NS	cueing_effect	60	0					0					1336.85810491		nogo	1
SPC_320	2015_Apr_16_0931	LL-Jerry	NS	cueing_effect	61	1	sound	left			1	left	-187.00897798	8.86483590616	1.0	372.358035296	 	go	1
SPC_320	2015_Apr_16_0931	LL-Jerry	NS	cueing_effect	62	0					1	left	-196.933629412	-11.7165141824	1.0	476.172424853	 	go	1
SPC_320	2015_Apr_16_0931	LL-Jerry	NS	cueing_effect	63	1	sound	left			1	left	-216.552672723	-22.0970916595	1.0	430.618679151	 	go	1
SPC_320	2015_Apr_16_0931	LL-Jerry	NS	cueing_effect	64	1	sound	right			0					1328.40686478		nogo	1
SPC_320	2015_Apr_16_0931	LL-Jerry	NS	cueing_effect	65	0					1	left	-191.113741732	7.24056409169	1.0	371.850460768	 	go	1
SPC_320	2015_Apr_16_0931	LL-Jerry	NS	cueing_effect	66	1	frame	right	200	0	1	right	185.359642495	-1.97108207245	1.0	425.106437877	 	go	1
SPC_320	2015_Apr_16_0931	LL-Jerry	NS	cueing_effect	67	0					1	left	-186.674552255	2.61267277891	1.0	437.341120094	 	go	1
SPC_320	2015_Apr_16_0931	LL-Jerry	NS	cueing_effect	68	1	sound	right			1	right	206.101474605	-9.59370529991	1.0	436.108870432	 	go	1
SPC_320	2015_Apr_16_0931	LL-Jerry	NS	cueing_effect	69	1	frame	left	-200	0	1	left	-222.357026614	2.82427744416	1.0	411.178695038	 	go	1
SPC_320	2015_Apr_16_0931	LL-Jerry	NS	cueing_effect	70	0					1	right	216.082984052	12.775268954	1.0	504.949154332	 	go	1
SPC_320	2015_Apr_16_0931	LL-Jerry	NS	cueing_effect	71	1	sound	left			1	left	-218.415162639	14.2307797005	1.0	476.599397138	 	go	1
SPC_320	2015_Apr_16_0931	LL-Jerry	NS	cueing_effect	72	0					1	left	-193.577213288	15.8372267199	1.0	1337.25428209		nogo	0
SPC_320	2015_Apr_16_0931	LL-Jerry	NS	cueing_effect	73	1	frame	right	200	0	1	right	204.268510432	0.84474262302	1.0	462.316541001	 	go	1
SPC_320	2015_Apr_16_0931	LL-Jerry	NS	cueing_effect	74	1	frame	right	200	0	1	right	216.538675629	14.2240218325	1.0	429.923662916	 	go	1
SPC_320	2015_Apr_16_0931	LL-Jerry	NS	cueing_effect	75	1	sound	right			1	right	192.585695449	-15.7510092762	1.0	467.097643763	 	go	1
SPC_320	2015_Apr_16_0931	LL-Jerry	NS	cueing_effect	76	1	frame	right	200	0	1	right	217.198021894	-12.1182809795	1.0	428.951472044	 	go	1
SPC_320	2015_Apr_16_0931	LL-Jerry	NS	cueing_effect	77	1	sound	right			1	right	199.453390878	13.1822383155	1.0	378.612441942	 	go	1
SPC_320	2015_Apr_16_0931	LL-Jerry	NS	cueing_effect	78	1	frame	left	-200	0	1	left	-221.015542199	4.44100833734	1.0	356.726584956	 	go	1
SPC_320	2015_Apr_16_0931	LL-Jerry	NS	cueing_effect	79	0					1	right	219.859136836	14.6523858672	1.0	449.394064024	 	go	1
SPC_320	2015_Apr_16_0931	LL-Jerry	NS	cueing_effect	80	1	sound	left			1	left	-184.190963594	-19.2280184981	1.0	409.813752398	 	go	1
SPC_320	2015_Apr_16_0931	LL-Jerry	NS	cueing_effect	81	1	frame	right	200	0	1	right	219.717574727	-20.6133540969	1.0	375.635040924	 	go	1
SPC_320	2015_Apr_16_0931	LL-Jerry	NS	cueing_effect	82	0					0					1329.1961737		nogo	1
SPC_320	2015_Apr_16_0931	LL-Jerry	NS	cueing_effect	83	1	frame	right	200	0	1	right	220.425176166	20.9351588534	1.0	520.37833631	 	go	1
SPC_320	2015_Apr_16_0931	LL-Jerry	NS	cueing_effect	84	1	sound	right			1	right	196.344355407	21.5136912243	1.0	458.515610546	 	go	1
SPC_320	2015_Apr_16_0931	LL-Jerry	NS	cueing_effect	85	1	frame	right	200	0	1	right	186.314634469	18.6210057066	1.0	739.158205688	 	go	1
SPC_320	2015_Apr_16_0931	LL-Jerry	NS	cueing_effect	86	1	sound	right			1	right	210.151219397	-23.755115987	1.0	448.237473145	 	go	1
SPC_320	2015_Apr_16_0931	LL-Jerry	NS	cueing_effect	87	1	frame	right	200	0	1	right	212.867744047	-2.16859425509	1.0	353.130586445	 	go	1
SPC_320	2015_Apr_16_0931	LL-Jerry	NS	cueing_effect	88	1	sound	right			0					1337.91508153		nogo	1
SPC_320	2015_Apr_16_0931	LL-Jerry	NS	cueing_effect	89	0					1	right	179.297786677	20.8575145942	1.0	576.96987316	 	go	1
SPC_320	2015_Apr_16_0931	LL-Jerry	NS	cueing_effect	90	0					1	left	-210.92908085	12.940844451	1.0	689.94991295	 	go	1
SPC_320	2015_Apr_16_0931	LL-Jerry	NS	cueing_effect	91	1	sound	right			1	right	210.787331648	14.7624108583	1.0	468.652691692	 	go	1
SPC_320	2015_Apr_16_0931	LL-Jerry	NS	cueing_effect	92	1	sound	left			1	left	-198.120150151	19.8300096832	1.0	385.973250493	 	go	1
SPC_320	2015_Apr_16_0931	LL-Jerry	NS	cueing_effect	93	0					1	left	-219.233273969	12.9262946087	1.0	690.792070702	 	go	1
SPC_320	2015_Apr_16_0931	LL-Jerry	NS	cueing_effect	94	1	frame	right	200	0	1	right	194.432985162	4.49671825888	1.0	319.156806916	 	go	1
SPC_320	2015_Apr_16_0931	LL-Jerry	NS	cueing_effect	95	1	frame	left	-200	0	1	left	-198.663325771	4.47493475785	1.0	368.569653481	 	go	1
SPC_320	2015_Apr_16_0931	LL-Jerry	NS	cueing_effect	96	1	frame	right	200	0	1	right	180.635911304	20.669466988	1.0	392.231076956	 	go	1
SPC_320	2015_Apr_16_0931	LL-Jerry	NS	cueing_effect	97	1	sound	right			1	right	213.345989378	1.92076830591	1.0	653.640519828	 	go	1
SPC_320	2015_Apr_16_0931	LL-Jerry	NS	cueing_effect	98	0					1	left	-182.689374623	-10.0027940105	1.0	612.23103106	 	go	1
SPC_320	2015_Apr_16_0931	LL-Jerry	NS	cueing_effect	99	1	sound	right			1	right	181.612040299	3.23516062342	1.0	528.807526454	 	go	1
SPC_320	2015_Apr_16_0931	LL-Jerry	NS	cueing_effect	100	0					1	left	-209.734606604	-21.2526612872	1.0	564.635194838	 	go	1
SPC_320	2015_Apr_16_0931	LL-Jerry	NS	cueing_effect	101	0					1	left	-201.949454264	22.8074370952	1.0	433.705581352	 	go	1
SPC_320	2015_Apr_16_0931	LL-Jerry	NS	cueing_effect	102	0					0					1331.30061999		nogo	1
SPC_320	2015_Apr_16_0931	LL-Jerry	NS	cueing_effect	103	0					1	left	-193.306497498	-5.26853300628	1.0	603.018615395	 	go	1
SPC_320	2015_Apr_16_0931	LL-Jerry	NS	cueing_effect	104	1	frame	right	200	0	1	right	188.44205173	12.237276214	1.0	387.792160735	 	go	1
SPC_320	2015_Apr_16_0931	LL-Jerry	NS	cueing_effect	105	1	sound	left			1	left	-217.12412236	-21.8889807893	1.0	386.456493288	 	go	1
SPC_320	2015_Apr_16_0931	LL-Jerry	NS	cueing_effect	106	1	frame	right	200	0	0					1337.87515946		nogo	1
SPC_320	2015_Apr_16_0931	LL-Jerry	NS	cueing_effect	107	1	sound	right			1	right	188.377118524	13.599031185	1.0	371.055066586	 	go	1
SPC_320	2015_Apr_16_0931	LL-Jerry	NS	cueing_effect	108	0					1	left	-197.782030743	-13.8107272429	1.0	694.975487888	 	go	1
SPC_320	2015_Apr_16_0931	LL-Jerry	NS	cueing_effect	109	1	frame	left	-200	0	1	left	-188.911484522	20.9749656792	1.0	404.850147665	 	go	1
SPC_320	2015_Apr_16_0931	LL-Jerry	NS	cueing_effect	110	0					1	right	216.652793649	-5.29350452616	1.0	420.728733763	 	go	1
SPC_320	2015_Apr_16_0931	LL-Jerry	NS	cueing_effect	111	1	frame	left	-200	0	1	left	-215.477504778	-9.77489706189	1.0	350.861132145	 	go	1
SPC_320	2015_Apr_16_0931	LL-Jerry	NS	cueing_effect	112	1	sound	left			1	left	-206.004544491	20.8763239985	1.0	486.443718895	 	go	1
SPC_320	2015_Apr_16_0931	LL-Jerry	NS	cueing_effect	113	1	sound	right			1	right	195.951382057	-10.6399403678	1.0	390.928108245	 	go	1
SPC_320	2015_Apr_16_0931	LL-Jerry	NS	cueing_effect	114	1	frame	right	200	0	1	right	204.933162509	-2.7775985009	1.0	303.786557168	 	go	1
SPC_320	2015_Apr_16_0931	LL-Jerry	NS	cueing_effect	115	1	frame	left	-200	0	1	left	-201.144080891	-20.1384028792	1.0	482.002139091	 	go	1
SPC_320	2015_Apr_16_0931	LL-Jerry	NS	cueing_effect	116	1	frame	right	200	0	1	right	205.125651086	9.01855391255	1.0	391.556590796	 	go	1
SPC_320	2015_Apr_16_0931	LL-Jerry	NS	cueing_effect	117	0					1	right	216.079111648	21.3952878092	1.0	567.924367264	 	go	1
SPC_320	2015_Apr_16_0931	LL-Jerry	NS	cueing_effect	118	0					1	left	-179.638508129	-19.2207644256	1.0	512.736555189	 	go	1
SPC_320	2015_Apr_16_0931	LL-Jerry	NS	cueing_effect	119	0					0					1338.14967051		nogo	1
SPC_320	2015_Apr_16_0931	LL-Jerry	NS	cueing_effect	120	0					1	left	-180.947089093	12.7575798024	1.0	487.158507109	 	go	1
SPC_320	2015_Apr_16_0931	LL-Jerry	NS	cueing_effect	121	1	sound	right			1	right	190.162317593	-5.00615105078	1.0	413.05311583	 	go	1
SPC_320	2015_Apr_16_0931	LL-Jerry	NS	cueing_effect	122	0					0					1331.76104911		nogo	1
SPC_320	2015_Apr_16_0931	LL-Jerry	NS	cueing_effect	123	1	sound	left			1	left	-203.316152868	12.9254810017	1.0	536.592265591	 	go	1
SPC_320	2015_Apr_16_0931	LL-Jerry	NS	cueing_effect	124	0					1	right	179.189681763	8.31230171722	1.0	720.616269857	 	go	1
SPC_320	2015_Apr_16_0931	LL-Jerry	NS	cueing_effect	125	1	sound	left			1	left	-194.925769782	3.40033253953	1.0	436.032829806	 	go	1
SPC_320	2015_Apr_16_0931	LL-Jerry	NS	cueing_effect	126	0					1	right	196.214411861	6.16967669579	1.0	1248.70406464	 	go	1
SPC_320	2015_Apr_16_0931	LL-Jerry	NS	cueing_effect	127	1	sound	left			1	left	-191.238135842	4.51080931457	1.0	412.717772648	 	go	1
SPC_320	2015_Apr_16_0931	LL-Jerry	NS	cueing_effect	128	1	sound	right			1	right	211.199622648	-17.4653945808	1.0	387.967055663	 	go	1
SPC_320	2015_Apr_16_0931	LL-Jerry	NS	cueing_effect	129	0					1	right	179.731779624	-22.3370426998	1.0	464.395133778	 	go	1
SPC_320	2015_Apr_16_0931	LL-Jerry	NS	cueing_effect	130	1	frame	left	-200	0	1	left	-184.543745801	11.2088728911	1.0	411.668781191	 	go	1
SPC_320	2015_Apr_16_0931	LL-Jerry	NS	cueing_effect	131	1	frame	right	200	0	1	right	181.636398337	-10.8599766719	1.0	387.698249891	 	go	1
SPC_320	2015_Apr_16_0931	LL-Jerry	NS	cueing_effect	132	1	frame	left	-200	0	1	left	-178.040137019	-19.4035682787	1.0	463.671218604	 	go	1
SPC_320	2015_Apr_16_0931	LL-Jerry	NS	cueing_effect	133	0					1	right	190.027233102	6.65689366026	1.0	347.008492798	 	go	1
SPC_320	2015_Apr_16_0931	LL-Jerry	NS	cueing_effect	134	0					1	left	-185.540874844	-7.8020567601	1.0	427.270576358	 	go	1
SPC_320	2015_Apr_16_0931	LL-Jerry	NS	cueing_effect	135	0					1	right	211.834580167	-16.3031826767	1.0	613.370511681	 	go	1
SPC_320	2015_Apr_16_0931	LL-Jerry	NS	cueing_effect	136	1	sound	left			1	left	-213.486723757	-1.21117634781	1.0	436.957111582	 	go	1
SPC_320	2015_Apr_16_0931	LL-Jerry	NS	cueing_effect	137	1	frame	left	-200	0	1	left	-210.350371853	-5.2222895184	1.0	574.124403298	 	go	1
SPC_320	2015_Apr_16_0931	LL-Jerry	NS	cueing_effect	138	1	frame	left	-200	0	1	left	-181.243614176	15.2147182791	1.0	482.662940398	 	go	1
SPC_320	2015_Apr_16_0931	LL-Jerry	NS	cueing_effect	139	1	frame	left	-200	0	0					1337.64057234		nogo	1
SPC_320	2015_Apr_16_0931	LL-Jerry	NS	cueing_effect	140	1	sound	left			0					1338.05993944		nogo	1
SPC_320	2015_Apr_16_0931	LL-Jerry	NS	cueing_effect	141	1	sound	right			1	right	195.272925329	-20.6948874185	1.0	538.47771138	 	go	1
SPC_320	2015_Apr_16_0931	LL-Jerry	NS	cueing_effect	142	0					1	left	-208.728261484	16.4537109459	1.0	663.424767554	 	go	1
SPC_320	2015_Apr_16_0931	LL-Jerry	NS	cueing_effect	143	1	sound	left			0					1338.49831857		nogo	1
SPC_320	2015_Apr_16_0931	LL-Jerry	NS	cueing_effect	144	0					1	left	-204.264787054	19.761034101	1.0	472.153635696	 	go	1
SPC_320	2015_Apr_16_0931	LL-Jerry	NS	cueing_effect	145	0					1	right	208.343449371	-17.7740521141	1.0	692.767625675	 	go	1
SPC_320	2015_Apr_16_0931	LL-Jerry	NS	cueing_effect	146	1	frame	right	200	0	0					1331.9420293		nogo	1
SPC_320	2015_Apr_16_0931	LL-Jerry	NS	cueing_effect	147	0					1	left	-205.756250284	8.1362390605	1.0	478.200068697	 	go	1
SPC_320	2015_Apr_16_0931	LL-Jerry	NS	cueing_effect	148	1	sound	right			1	right	208.788779829	-18.7941369013	1.0	503.555696458	 	go	1
SPC_320	2015_Apr_16_0931	LL-Jerry	NS	cueing_effect	149	1	sound	left			1	left	-211.910655675	-0.682478720859	1.0	337.713951245	 	go	1
SPC_320	2015_Apr_16_0931	LL-Jerry	NS	cueing_effect	150	0					1	right	219.346070738	-13.7786812483	1.0	623.679066077	 	go	1
SPC_320	2015_Apr_16_0931	LL-Jerry	NS	cueing_effect	151	1	sound	right			1	right	220.946058726	-9.69712349961	1.0	252.747185528	 	go	1
SPC_320	2015_Apr_16_0931	LL-Jerry	NS	cueing_effect	152	1	frame	left	-200	0	1	left	-186.288092199	-6.91208923923	1.0	409.618325531	 	go	1
SPC_320	2015_Apr_16_0931	LL-Jerry	NS	cueing_effect	153	1	frame	right	200	0	1	right	206.469357946	-3.30544395876	1.0	417.991245165	 	go	1
SPC_320	2015_Apr_16_0931	LL-Jerry	NS	cueing_effect	154	0					1	right	215.534590138	21.9703232937	1.0	453.757319599	 	go	1
SPC_320	2015_Apr_16_0931	LL-Jerry	NS	cueing_effect	155	1	frame	right	200	0	1	right	200.201997416	3.60253953507	1.0	377.552805468	 	go	1
SPC_320	2015_Apr_16_0931	LL-Jerry	NS	cueing_effect	156	0					1	left	-187.359193525	-21.2127117628	1.0	306.837718934	 	go	1
SPC_320	2015_Apr_16_0931	LL-Jerry	NS	cueing_effect	157	0					1	right	218.398101246	6.55471115584	1.0	389.328576624	 	go	1
SPC_320	2015_Apr_16_0931	LL-Jerry	NS	cueing_effect	158	1	frame	right	200	0	1	right	177.558340801	19.301431423	1.0	0.0	 	go	0
SPC_320	2015_Apr_16_0931	LL-Jerry	NS	cueing_effect	159	0					1	left	-223.226587089	11.7613813469	1.0	432.97368288	 	go	1
SPC_320	2015_Apr_16_0931	LL-Jerry	NS	cueing_effect	160	0					1	right	201.950859674	4.31909156217	1.0	555.675616488	 	go	1
SPC_320	2015_Apr_16_0931	LL-Jerry	NS	cueing_effect	161	1	sound	right			1	right	196.198715107	-5.1771881157	1.0	397.400373593	 	go	1
SPC_320	2015_Apr_16_0931	LL-Jerry	NS	cueing_effect	162	1	sound	right			1	right	199.903636069	9.98967652056	1.0	446.909410879	 	go	1
SPC_320	2015_Apr_16_0931	LL-Jerry	NS	cueing_effect	163	0					1	right	219.414953329	7.92852884092	1.0	744.703525677	 	go	1
SPC_320	2015_Apr_16_0931	LL-Jerry	NS	cueing_effect	164	1	frame	right	200	0	1	right	202.283998117	-2.05281089918	1.0	548.162344843	 	go	1
SPC_320	2015_Apr_16_0931	LL-Jerry	NS	cueing_effect	165	1	sound	left			1	left	-223.885556477	-0.587526674401	1.0	362.446799874	 	go	1
SPC_320	2015_Apr_16_0931	LL-Jerry	NS	cueing_effect	166	0					1	right	190.202137611	18.5218389068	1.0	453.726524487	 	go	1
SPC_320	2015_Apr_16_0931	LL-Jerry	NS	cueing_effect	167	1	sound	left			1	left	-209.259089335	-0.221004609366	1.0	552.865507081	 	go	1
SPC_320	2015_Apr_16_0931	LL-Jerry	NS	cueing_effect	168	1	sound	left			1	left	-206.172413685	-21.1929300561	1.0	405.742496252	 	go	1
SPC_320	2015_Apr_16_0931	LL-Jerry	NS	cueing_effect	169	1	frame	left	-200	0	1	left	-192.830771172	0.159083482243	1.0	388.7833599	 	go	1
SPC_320	2015_Apr_16_0931	LL-Jerry	NS	cueing_effect	170	0					1	left	-179.389842788	0.511609404758	1.0	712.304564193	 	go	1
SPC_320	2015_Apr_16_0931	LL-Jerry	NS	cueing_effect	171	1	sound	left			0					1329.71743867		nogo	1
SPC_320	2015_Apr_16_0931	LL-Jerry	NS	cueing_effect	172	1	sound	right			1	right	222.972125423	-9.60027925812	1.0	349.100772291	 	go	1
SPC_320	2015_Apr_16_0931	LL-Jerry	NS	cueing_effect	173	1	frame	left	-200	0	1	left	-199.748196898	-20.5784820543	1.0	406.022327021	 	go	1
SPC_320	2015_Apr_16_0931	LL-Jerry	NS	cueing_effect	174	0					0					1330.83562553		nogo	1
SPC_320	2015_Apr_16_0931	LL-Jerry	NS	cueing_effect	175	1	frame	right	200	0	1	right	210.720104235	-16.3010397362	1.0	563.392678276	 	go	1
SPC_320	2015_Apr_16_0931	LL-Jerry	NS	cueing_effect	176	1	frame	left	-200	0	1	left	-215.09292253	5.05441772499	1.0	454.950790852	 	go	1
SPC_320	2015_Apr_16_0931	LL-Jerry	NS	cueing_effect	177	1	frame	left	-200	0	1	left	-191.371194196	14.7357852683	1.0	487.78356798	 	go	1
SPC_320	2015_Apr_16_0931	LL-Jerry	NS	cueing_effect	178	1	frame	left	-200	0	1	left	-181.877926904	16.2656638145	1.0	504.148818552	 	go	1
SPC_320	2015_Apr_16_0931	LL-Jerry	NS	cueing_effect	179	0					1	left	-219.699600335	9.10827229894	1.0	470.814548433	 	go	1
SPC_320	2015_Apr_16_0931	LL-Jerry	NS	cueing_effect	180	1	frame	left	-200	0	1	left	-207.353286813	-18.7552802195	1.0	417.6798556	 	go	1
SPC_320	2015_Apr_16_0931	LL-Jerry	NS	cueing_effect	181	0					1	left	-189.498565444	15.9530979204	1.0	486.398853362	 	go	1
SPC_320	2015_Apr_16_0931	LL-Jerry	NS	cueing_effect	182	0					1	left	-210.715027124	-14.4491708695	1.0	1329.78017256		nogo	0
SPC_320	2015_Apr_16_0931	LL-Jerry	NS	cueing_effect	183	1	sound	right			1	right	207.66968178	14.7973769665	1.0	428.224897012	 	go	1
SPC_320	2015_Apr_16_0931	LL-Jerry	NS	cueing_effect	184	1	frame	left	-200	0	1	left	-191.521022178	11.8810075932	1.0	329.446351156	 	go	1
SPC_320	2015_Apr_16_0931	LL-Jerry	NS	cueing_effect	185	0					0					1336.99193969		nogo	1
SPC_320	2015_Apr_16_0931	LL-Jerry	NS	cueing_effect	186	1	frame	right	200	0	0					961.703266948	 	go	0
SPC_320	2015_Apr_16_0931	LL-Jerry	NS	cueing_effect	187	1	frame	right	200	0	1	right	220.385206226	13.7546576499	1.0	546.568518505	 	go	1
SPC_320	2015_Apr_16_0931	LL-Jerry	NS	cueing_effect	188	0					1	right	212.41099059	19.829959983	1.0	413.499860093	 	go	1
SPC_320	2015_Apr_16_0931	LL-Jerry	NS	cueing_effect	189	1	sound	left			1	left	-197.263642742	-23.6961195956	1.0	537.791058421	 	go	1
SPC_320	2015_Apr_16_0931	LL-Jerry	NS	cueing_effect	190	0					1	left	-214.392572492	-21.3958657079	1.0	545.331323519	 	go	1
SPC_320	2015_Apr_16_0931	LL-Jerry	NS	cueing_effect	191	1	frame	right	200	0	1	right	205.341971482	20.8423985046	1.0	575.190123171	 	go	1
SPC_320	2015_Apr_16_0931	LL-Jerry	NS	cueing_effect	192	1	frame	right	200	0	1	right	185.08874356	-4.23706225406	1.0	346.08611092	 	go	1
SPC_320	2015_Apr_16_0931	LL-Jerry	NS	cueing_effect	193	0					1	left	-182.221770707	-5.08580384176	1.0	1330.11969551		nogo	0
SPC_320	2015_Apr_16_0931	LL-Jerry	NS	cueing_effect	194	1	sound	left			1	left	-203.457867418	-11.3514291281	1.0	387.811170891	 	go	1
SPC_320	2015_Apr_16_0931	LL-Jerry	NS	cueing_effect	195	0					1	right	213.335180067	19.227054027	1.0	367.928244174	 	go	1
SPC_320	2015_Apr_16_0931	LL-Jerry	NS	cueing_effect	196	1	sound	right			1	right	189.889533998	10.1126551996	1.0	406.581612304	 	go	1
SPC_320	2015_Apr_16_0931	LL-Jerry	NS	cueing_effect	197	0					0					1328.7098892		nogo	1
SPC_320	2015_Apr_16_0931	LL-Jerry	NS	cueing_effect	198	1	sound	right			1	right	195.429232261	-3.76110441504	1.0	445.866122842	 	go	1
SPC_320	2015_Apr_16_0931	LL-Jerry	NS	cueing_effect	199	0					1	left	-204.338517193	15.5127764407	1.0	570.941308513	 	go	1
SPC_320	2015_Apr_16_0931	LL-Jerry	NS	cueing_effect	200	1	frame	right	200	0	1	right	176.35087102	-5.84550585957	1.0	370.57790719	 	go	1
SPC_320	2015_Apr_16_0931	LL-Jerry	NS	cueing_effect	201	1	sound	right			1	right	176.562916178	-6.23461282807	1.0	579.605467618	 	go	1
SPC_320	2015_Apr_16_0931	LL-Jerry	NS	cueing_effect	202	1	frame	left	-200	0	1	left	-192.832806025	19.1737761374	1.0	359.297163785	 	go	1
SPC_320	2015_Apr_16_0931	LL-Jerry	NS	cueing_effect	203	1	frame	right	200	0	1	right	221.948939709	-14.2969683862	1.0	1329.48056981		nogo	0
SPC_320	2015_Apr_16_0931	LL-Jerry	NS	cueing_effect	204	0					1	right	185.130871925	-11.2060513914	1.0	469.481542706	 	go	1
SPC_320	2015_Apr_16_0931	LL-Jerry	NS	cueing_effect	205	1	sound	left			1	left	-190.601428859	15.1221640042	1.0	505.402741954	 	go	1
SPC_320	2015_Apr_16_0931	LL-Jerry	NS	cueing_effect	206	1	sound	right			1	right	214.336193494	-8.87261617137	1.0	520.979823545	 	go	1
SPC_320	2015_Apr_16_0931	LL-Jerry	NS	cueing_effect	207	0					1	left	-204.460850017	-20.7077472348	1.0	467.359988019	 	go	1
SPC_320	2015_Apr_16_0931	LL-Jerry	NS	cueing_effect	208	0					1	right	191.521778904	5.069352598	1.0	481.721166521	 	go	1
SPC_320	2015_Apr_16_0931	LL-Jerry	NS	cueing_effect	209	1	sound	left			1	left	-214.515646616	-0.660802263982	1.0	388.283768669	 	go	1
SPC_320	2015_Apr_16_0931	LL-Jerry	NS	cueing_effect	210	1	sound	left			1	left	-204.72530543	-1.10553465218	1.0	366.595998406	 	go	1
SPC_320	2015_Apr_16_0931	LL-Jerry	NS	cueing_effect	211	0					1	left	-199.710901439	-1.12605861282	1.0	407.087666914	 	go	1
SPC_320	2015_Apr_16_0931	LL-Jerry	NS	cueing_effect	212	0					1	left	-192.649220785	15.4673815946	1.0	437.029350549	 	go	1
SPC_320	2015_Apr_16_0931	LL-Jerry	NS	cueing_effect	213	0					1	left	-182.555855482	14.5833334484	1.0	400.760263205	 	go	1
SPC_320	2015_Apr_16_0931	LL-Jerry	NS	cueing_effect	214	1	sound	right			1	right	188.983569676	-5.19820112114	1.0	387.02452369	 	go	1
SPC_320	2015_Apr_16_0931	LL-Jerry	NS	cueing_effect	215	1	frame	left	-200	0	1	left	-180.842758662	-2.86164699967	1.0	370.904125273	 	go	1
SPC_320	2015_Apr_16_0931	LL-Jerry	NS	cueing_effect	216	0					1	right	180.134746259	-15.431501966	1.0	407.301723957	 	go	1
SPC_320	2015_Apr_16_0931	LL-Jerry	NS	cueing_effect	217	1	sound	left			1	left	-184.618338964	-14.3564974151	1.0	387.456437573	 	go	1
SPC_320	2015_Apr_16_0931	LL-Jerry	NS	cueing_effect	218	1	frame	right	200	0	1	right	185.859421839	11.6692919357	1.0	382.203876972	 	go	1
SPC_320	2015_Apr_16_0931	LL-Jerry	NS	cueing_effect	219	0					1	left	-197.738193809	5.20788280104	1.0	441.511992365	 	go	1
SPC_320	2015_Apr_16_0931	LL-Jerry	NS	cueing_effect	220	1	frame	left	-200	0	1	left	-207.226612987	8.09156792894	1.0	265.778020024	 	go	1
SPC_320	2015_Apr_16_0931	LL-Jerry	NS	cueing_effect	221	1	sound	left			1	left	-206.132839016	-11.5831185453	1.0	597.917757928	 	go	1
SPC_320	2015_Apr_16_0931	LL-Jerry	NS	cueing_effect	222	0					1	left	-218.266980832	-16.2685439397	1.0	683.41833353	 	go	1
SPC_320	2015_Apr_16_0931	LL-Jerry	NS	cueing_effect	223	1	sound	right			1	right	202.502831913	22.6841646682	1.0	371.310185641	 	go	1
SPC_320	2015_Apr_16_0931	LL-Jerry	NS	cueing_effect	224	1	sound	left			1	left	-197.992049574	22.2978128198	1.0	387.713078409	 	go	1
SPC_320	2015_Apr_16_0931	LL-Jerry	NS	cueing_effect	225	0					0					1337.32994273		nogo	1
SPC_320	2015_Apr_16_0931	LL-Jerry	NS	cueing_effect	226	1	frame	left	-200	0	1	left	-199.943785118	-12.0713718338	1.0	18.3940362185	 	go	1
SPC_320	2015_Apr_16_0931	LL-Jerry	NS	cueing_effect	227	1	sound	left			0					1338.18084747		nogo	1
SPC_320	2015_Apr_16_0931	LL-Jerry	NS	cueing_effect	228	1	frame	right	200	0	1	right	200.385325958	14.9607269497	1.0	462.938178331	 	go	1
SPC_320	2015_Apr_16_0931	LL-Jerry	NS	cueing_effect	229	1	sound	left			1	left	-205.074736003	12.1327786877	1.0	456.889465451	 	go	1
SPC_320	2015_Apr_16_0931	LL-Jerry	NS	cueing_effect	230	1	frame	right	200	0	1	right	209.808206775	-9.65477043425	1.0	446.163825691	 	go	1
SPC_320	2015_Apr_16_0931	LL-Jerry	NS	cueing_effect	231	1	frame	right	200	0	1	right	216.2108477	-9.27050635959	1.0	422.76436463	 	go	1
SPC_320	2015_Apr_16_0931	LL-Jerry	NS	cueing_effect	232	0					1	right	193.506081302	16.2837605253	1.0	633.148502558	 	go	1
SPC_320	2015_Apr_16_0931	LL-Jerry	NS	cueing_effect	233	1	sound	left			1	left	-205.180288596	22.0889362104	1.0	353.724090382	 	go	1
SPC_320	2015_Apr_16_0931	LL-Jerry	NS	cueing_effect	234	1	frame	left	-200	0	0					312.621049583	 	go	0
SPC_320	2015_Apr_16_0931	LL-Jerry	NS	cueing_effect	235	0					1	right	212.146452068	-22.4369094902	1.0	572.492552921	 	go	1
SPC_320	2015_Apr_16_0931	LL-Jerry	NS	cueing_effect	236	0					1	right	186.124626264	-21.1914251421	1.0	528.953906149	 	go	1
SPC_320	2015_Apr_16_0931	LL-Jerry	NS	cueing_effect	237	0					0					1338.06412295		nogo	1
SPC_320	2015_Apr_16_0931	LL-Jerry	NS	cueing_effect	238	0					1	right	199.226774408	7.3742516435	1.0	480.832623318	 	go	1
SPC_320	2015_Apr_16_0931	LL-Jerry	NS	cueing_effect	239	1	frame	left	-200	0	1	left	-198.828811943	1.49296921166	1.0	466.612119228	 	go	1
SPC_320	2015_Apr_16_0931	LL-Jerry	NS	cueing_effect	240	1	frame	right	200	0	1	right	220.870615152	22.5147897484	1.0	403.532732278	 	go	1
SPC_320	2015_Apr_16_0931	LL-Jerry	NS	cueing_effect	241	1	sound	right			1	right	200.235841101	-19.2562543964	1.0	376.819005236	 	go	1
SPC_320	2015_Apr_16_0931	LL-Jerry	NS	cueing_effect	242	0					1	left	-195.603991671	15.8772267646	1.0	700.669089332	 	go	1
SPC_320	2015_Apr_16_0931	LL-Jerry	NS	cueing_effect	243	1	sound	right			1	right	197.95648902	-7.27110661367	1.0	504.760950804	 	go	1
SPC_320	2015_Apr_16_0931	LL-Jerry	NS	cueing_effect	244	0					1	left	-182.168091223	11.0092876251	1.0	391.356982291	 	go	1
SPC_320	2015_Apr_16_0931	LL-Jerry	NS	cueing_effect	245	1	frame	right	200	0	1	right	184.404654753	11.3856121926	1.0	448.984200135	 	go	1
SPC_320	2015_Apr_16_0931	LL-Jerry	NS	cueing_effect	246	1	sound	left			1	left	-221.128564029	-2.56239300172	1.0	393.297556788	 	go	1
SPC_320	2015_Apr_16_0931	LL-Jerry	NS	cueing_effect	247	1	sound	right			1	right	218.288783672	1.88274261497	1.0	370.729610324	 	go	1
SPC_320	2015_Apr_16_0931	LL-Jerry	NS	cueing_effect	248	1	frame	right	200	0	1	right	183.07844192	-13.3473246919	1.0	418.644819409	 	go	1
SPC_320	2015_Apr_16_0931	LL-Jerry	NS	cueing_effect	249	1	sound	left			1	left	-223.206005029	-15.6017580925	1.0	1329.0771693		nogo	0
SPC_320	2015_Apr_16_0931	LL-Jerry	NS	cueing_effect	250	0					1	left	-181.152623137	17.2790467782	1.0	447.085827589	 	go	1
SPC_320	2015_Apr_16_0931	LL-Jerry	NS	cueing_effect	251	1	sound	right			1	right	208.070490596	1.09501464231	1.0	425.532652065	 	go	1
SPC_320	2015_Apr_16_0931	LL-Jerry	NS	cueing_effect	252	1	sound	left			1	left	-178.096203603	-13.2481294012	1.0	440.17822668	 	go	1
SPC_320	2015_Apr_16_0931	LL-Jerry	NS	cueing_effect	253	1	sound	right			1	right	184.496201328	-21.2618398041	1.0	405.428064987	 	go	1
SPC_320	2015_Apr_16_0931	LL-Jerry	NS	cueing_effect	254	0					1	left	-212.618737729	-18.9134393544	1.0	658.676743507	 	go	1
SPC_320	2015_Apr_16_0931	LL-Jerry	NS	cueing_effect	255	1	sound	right			1	right	189.494782367	2.21860127045	1.0	453.712455928	 	go	1
SPC_320	2015_Apr_16_0931	LL-Jerry	NS	cueing_effect	256	0					1	right	188.919477727	-9.35598591787	1.0	1338.05765957		nogo	0
SPC_320	2015_Apr_16_0931	LL-Jerry	NS	cueing_effect	257	1	frame	left	-200	0	1	left	-208.435664375	-17.1895514577	1.0	513.776801527	 	go	1
SPC_320	2015_Apr_16_0931	LL-Jerry	NS	cueing_effect	258	0					1	right	188.18492699	2.39134455417	1.0	433.689612895	 	go	1
SPC_320	2015_Apr_16_0931	LL-Jerry	NS	cueing_effect	259	1	sound	right			1	right	176.31873614	12.8091975493	1.0	593.465153128	 	go	1
SPC_320	2015_Apr_16_0931	LL-Jerry	NS	cueing_effect	260	1	sound	left			1	left	-181.283814785	12.1088805393	1.0	412.440221757	 	go	1
SPC_320	2015_Apr_16_0931	LL-Jerry	NS	cueing_effect	261	0					1	right	182.337458925	12.7269210763	1.0	547.373035923	 	go	1
SPC_320	2015_Apr_16_0931	LL-Jerry	NS	cueing_effect	262	1	sound	right			1	right	183.874110192	-18.3585624279	1.0	520.529279485	 	go	1
SPC_320	2015_Apr_16_0931	LL-Jerry	NS	cueing_effect	263	1	frame	right	200	0	1	right	219.009614647	-0.786651422599	1.0	395.332807675	 	go	1
SPC_320	2015_Apr_16_0931	LL-Jerry	NS	cueing_effect	264	1	frame	left	-200	0	1	left	-190.286648158	21.7619411745	1.0	385.237550363	 	go	1
SPC_320	2015_Apr_16_0931	LL-Jerry	NS	cueing_effect	265	1	sound	right			1	right	219.395077489	3.38962802801	1.0	337.703686208	 	go	1
SPC_320	2015_Apr_16_0931	LL-Jerry	NS	cueing_effect	266	0					1	left	-181.060688017	22.2143796994	1.0	373.64997901	 	go	1
SPC_320	2015_Apr_16_0931	LL-Jerry	NS	cueing_effect	267	1	frame	right	200	0	0					1337.05049194		nogo	1
SPC_320	2015_Apr_16_0931	LL-Jerry	NS	cueing_effect	268	1	sound	right			1	right	207.364352591	-22.024063382	1.0	513.771478087	 	go	1
SPC_320	2015_Apr_16_0931	LL-Jerry	NS	cueing_effect	269	0					0					1337.84474246		nogo	1
SPC_320	2015_Apr_16_0931	LL-Jerry	NS	cueing_effect	270	0					1	right	179.620247374	1.35785929546	1.0	614.132827148	 	go	1
SPC_320	2015_Apr_16_0931	LL-Jerry	NS	cueing_effect	271	1	frame	left	-200	0	1	left	-183.796167715	21.9274708975	1.0	452.632287517	 	go	1
SPC_320	2015_Apr_16_0931	LL-Jerry	NS	cueing_effect	272	1	frame	right	200	0	1	right	213.56940298	9.9179456529	1.0	531.091429293	 	go	1
SPC_320	2015_Apr_16_0931	LL-Jerry	NS	cueing_effect	273	0					1	right	217.03860669	20.6512578977	1.0	425.422772765	 	go	1
SPC_320	2015_Apr_16_0931	LL-Jerry	NS	cueing_effect	274	1	sound	left			1	left	-179.04462173	3.26846527388	1.0	364.201836288	 	go	1
SPC_320	2015_Apr_16_0931	LL-Jerry	NS	cueing_effect	275	1	sound	left			1	left	-183.880515961	-23.7383479954	1.0	467.692667618	 	go	1
SPC_320	2015_Apr_16_0931	LL-Jerry	NS	cueing_effect	276	0					1	left	-217.006278344	-19.3653889772	1.0	440.243242308	 	go	1
SPC_320	2015_Apr_16_0931	LL-Jerry	NS	cueing_effect	277	0					1	left	-205.718550783	-15.4475072084	1.0	564.115451649	 	go	1
SPC_320	2015_Apr_16_0931	LL-Jerry	NS	cueing_effect	278	0					1	right	203.861040372	-12.654119632	1.0	476.320706308	 	go	1
SPC_320	2015_Apr_16_0931	LL-Jerry	NS	cueing_effect	279	1	frame	right	200	0	1	right	214.661860572	-23.9671688065	1.0	476.187253371	 	go	1
SPC_320	2015_Apr_16_0931	LL-Jerry	NS	cueing_effect	280	0					0					1335.06923169		nogo	1
SPC_320	2015_Apr_16_0931	LL-Jerry	NS	cueing_effect	281	1	frame	left	-200	0	0					1330.35846613		nogo	1
SPC_320	2015_Apr_16_0931	LL-Jerry	NS	cueing_effect	282	0					1	right	196.068270962	-4.61829742133	1.0	1329.81477119		nogo	0
SPC_320	2015_Apr_16_0931	LL-Jerry	NS	cueing_effect	283	0					1	right	188.28031176	-10.3741470823	1.0	635.465104133	 	go	1
SPC_320	2015_Apr_16_0931	LL-Jerry	NS	cueing_effect	284	0					1	right	199.031138421	4.15207631348	1.0	1329.9535457		nogo	0
SPC_320	2015_Apr_16_0931	LL-Jerry	NS	cueing_effect	285	0					1	right	195.684515594	-15.0427234774	1.0	526.543773711	 	go	1
SPC_320	2015_Apr_16_0931	LL-Jerry	NS	cueing_effect	286	0					0					1336.71134524		nogo	1
SPC_320	2015_Apr_16_0931	LL-Jerry	NS	cueing_effect	287	1	sound	right			1	right	207.530657503	-21.2298298466	1.0	354.450285435	 	go	1
SPC_320	2015_Apr_16_0931	LL-Jerry	NS	cueing_effect	288	1	sound	left			1	left	-190.783708867	12.8800292789	1.0	415.099769831	 	go	1
SPC_320	2015_Apr_16_0931	LL-Jerry	NS	cueing_effect	289	0					1	right	195.841392394	-17.0557642193	1.0	423.698151484	 	go	1
SPC_320	2015_Apr_16_0931	LL-Jerry	NS	cueing_effect	290	0					1	left	-198.536156474	-17.0682354168	1.0	495.48085779	 	go	1
SPC_320	2015_Apr_16_0931	LL-Jerry	NS	cueing_effect	291	1	frame	left	-200	0	1	left	-200.785464642	-16.352709256	1.0	303.839026019	 	go	1
SPC_320	2015_Apr_16_0931	LL-Jerry	NS	cueing_effect	292	1	sound	left			1	left	-215.379440497	0.784947393496	1.0	460.105257109	 	go	1
SPC_320	2015_Apr_16_0931	LL-Jerry	NS	cueing_effect	293	1	frame	left	-200	0	1	left	-215.253197529	12.0008574848	1.0	374.051479623	 	go	1
SPC_320	2015_Apr_16_0931	LL-Jerry	NS	cueing_effect	294	1	frame	left	-200	0	1	left	-219.061831478	6.77274484642	1.0	558.841601014	 	go	1
SPC_320	2015_Apr_16_0931	LL-Jerry	NS	cueing_effect	295	1	sound	right			1	right	207.037414666	14.6330834353	1.0	528.673313558	 	go	1
SPC_320	2015_Apr_16_0931	LL-Jerry	NS	cueing_effect	296	1	sound	right			1	right	180.756880852	-12.6332484848	1.0	363.724676892	 	go	1
SPC_320	2015_Apr_16_0931	LL-Jerry	NS	cueing_effect	297	0					1	left	-182.08768607	-3.42776799556	1.0	1022.53943309	 	go	1
SPC_320	2015_Apr_16_0931	LL-Jerry	NS	cueing_effect	298	1	frame	left	-200	0	1	left	-208.519577059	13.5185687134	1.0	326.524458826	 	go	1
SPC_320	2015_Apr_16_0931	LL-Jerry	NS	cueing_effect	299	1	sound	right			1	right	194.393363085	-1.84664843234	1.0	720.223896205	 	go	1
SPC_320	2015_Apr_16_0931	LL-Jerry	NS	cueing_effect	300	1	frame	left	-200	0	1	left	-209.691754577	-12.2272218507	1.0	408.878823742	 	go	1
SPC_320	2015_Apr_16_0931	LL-Jerry	NS	cueing_effect	301	1	frame	right	200	0	1	right	192.203566991	-7.31345074018	1.0	394.314233214	 	go	1
SPC_320	2015_Apr_16_0931	LL-Jerry	NS	cueing_effect	302	0					0					1330.64932562		nogo	1
SPC_320	2015_Apr_16_0931	LL-Jerry	NS	cueing_effect	303	1	frame	left	-200	0	1	left	-184.008701003	-21.7052439418	1.0	437.004258856	 	go	1
SPC_320	2015_Apr_16_0931	LL-Jerry	NS	cueing_effect	304	1	frame	right	200	0	1	right	195.299963255	-10.775354905	1.0	368.494752795	 	go	1
SPC_320	2015_Apr_16_0931	LL-Jerry	NS	cueing_effect	305	1	frame	left	-200	0	1	left	-192.768345063	-18.1336604417	1.0	337.106380612	 	go	1
SPC_320	2015_Apr_16_0931	LL-Jerry	NS	cueing_effect	306	1	frame	right	200	0	1	right	222.87335865	-7.58295653594	1.0	373.188028112	 	go	1
SPC_320	2015_Apr_16_0931	LL-Jerry	NS	cueing_effect	307	0					0					1328.59772816		nogo	1
SPC_320	2015_Apr_16_0931	LL-Jerry	NS	cueing_effect	308	1	sound	right			1	right	207.359105597	7.48776014614	1.0	354.476518929	 	go	1
SPC_320	2015_Apr_16_0931	LL-Jerry	NS	cueing_effect	309	0					1	left	-198.285205167	-22.5966547873	1.0	617.77026765	 	go	1
SPC_320	2015_Apr_16_0931	LL-Jerry	NS	cueing_effect	310	1	frame	right	200	0	0					1328.88896577		nogo	1
SPC_320	2015_Apr_16_0931	LL-Jerry	NS	cueing_effect	311	1	sound	right			0					1337.90063299		nogo	1
SPC_320	2015_Apr_16_0931	LL-Jerry	NS	cueing_effect	312	1	frame	right	200	0	1	right	202.003328315	-18.2346418693	1.0	471.099322662	 	go	1
SPC_320	2015_Apr_16_0931	LL-Jerry	NS	cueing_effect	313	1	frame	left	-200	0	0					1338.60477619		nogo	1
SPC_320	2015_Apr_16_0931	LL-Jerry	NS	cueing_effect	314	0					0					1329.87066172		nogo	1
SPC_320	2015_Apr_16_0931	LL-Jerry	NS	cueing_effect	315	1	frame	left	-200	0	1	left	-190.042022362	7.84073502504	1.0	443.332424387	 	go	1
SPC_320	2015_Apr_16_0931	LL-Jerry	NS	cueing_effect	316	1	frame	right	200	0	0					1325.33327118		nogo	1
SPC_320	2015_Apr_16_0931	LL-Jerry	NS	cueing_effect	317	0					1	left	-180.455796769	4.54415880479	1.0	670.975299552	 	go	1
SPC_320	2015_Apr_16_0931	LL-Jerry	NS	cueing_effect	318	1	sound	left			1	left	-212.868342284	19.0137495012	1.0	426.282418892	 	go	1
SPC_320	2015_Apr_16_0931	LL-Jerry	NS	cueing_effect	319	1	sound	left			0					1336.81856468		nogo	1
SPC_320	2015_Apr_16_0931	LL-Jerry	NS	cueing_effect	320	1	sound	right			0					1337.63372898		nogo	1
SPC_320	2015_Apr_16_0931	LL-Jerry	NS	cueing_effect	321	1	frame	left	-200	0	0					1327.11796276		nogo	1
SPC_320	2015_Apr_16_0931	LL-Jerry	NS	cueing_effect	322	1	frame	right	200	0	1	right	201.947519304	-4.48631721486	1.0	553.531629965	 	go	1
SPC_320	2015_Apr_16_0931	LL-Jerry	NS	cueing_effect	323	1	sound	right			1	right	216.664158575	9.22755956316	1.0	478.172315285	 	go	1
SPC_320	2015_Apr_16_0931	LL-Jerry	NS	cueing_effect	324	1	sound	right			1	right	200.604067092	3.60214171953	1.0	481.949292123	 	go	1
SPC_320	2015_Apr_16_0931	LL-Jerry	NS	cueing_effect	325	1	frame	right	200	0	0					1330.07331192		nogo	1
SPC_320	2015_Apr_16_0931	LL-Jerry	NS	cueing_effect	326	1	frame	left	-200	0	1	left	-206.792658929	16.9367566143	1.0	395.997408777	 	go	1
SPC_320	2015_Apr_16_0931	LL-Jerry	NS	cueing_effect	327	0					0					1337.89150789		nogo	1
SPC_320	2015_Apr_16_0931	LL-Jerry	NS	cueing_effect	328	1	sound	left			0					1338.98726664		nogo	1
SPC_320	2015_Apr_16_0931	LL-Jerry	NS	cueing_effect	329	1	frame	left	-200	0	1	left	-201.891257508	21.6340328989	1.0	561.995798722	 	go	1
SPC_320	2015_Apr_16_0931	LL-Jerry	NS	cueing_effect	330	1	frame	right	200	0	1	right	199.475495013	7.05416330711	1.0	668.771618977	 	go	1
SPC_320	2015_Apr_16_0931	LL-Jerry	NS	cueing_effect	331	1	sound	left			0					1336.5790341		nogo	1
SPC_320	2015_Apr_16_0931	LL-Jerry	NS	cueing_effect	332	1	frame	left	-200	0	1	left	-218.272184354	5.9918582163	1.0	612.760659307	 	go	1
SPC_320	2015_Apr_16_0931	LL-Jerry	NS	cueing_effect	333	1	frame	right	200	0	1	right	208.342469235	-11.3715210687	1.0	437.637681141	 	go	1
SPC_320	2015_Apr_16_0931	LL-Jerry	NS	cueing_effect	334	0					1	left	-200.050080762	6.32313503374	1.0	404.809465632	 	go	1
SPC_320	2015_Apr_16_0931	LL-Jerry	NS	cueing_effect	335	1	sound	left			1	left	-182.85284339	-11.1921103093	1.0	409.558253363	 	go	1
SPC_320	2015_Apr_16_0931	LL-Jerry	NS	cueing_effect	336	0					1	right	195.406214693	20.958392648	1.0	529.545506462	 	go	1
SPC_320	2015_Apr_16_0931	LL-Jerry	NS	cueing_effect	337	0					0					1337.99302392		nogo	1
SPC_320	2015_Apr_16_0931	LL-Jerry	NS	cueing_effect	338	0					1	right	213.470879664	-14.4640662806	1.0	545.391017571	 	go	1
SPC_320	2015_Apr_16_0931	LL-Jerry	NS	cueing_effect	339	1	frame	right	200	0	1	right	191.002473656	17.8238331642	1.0	345.742022619	 	go	1
SPC_320	2015_Apr_16_0931	LL-Jerry	NS	cueing_effect	340	1	frame	left	-200	0	0					1337.09079213		nogo	1
SPC_320	2015_Apr_16_0931	LL-Jerry	NS	cueing_effect	341	1	sound	right			0					1329.3212615		nogo	1
SPC_320	2015_Apr_16_0931	LL-Jerry	NS	cueing_effect	342	1	frame	left	-200	0	1	left	-208.126605318	-15.4204059627	1.0	395.63393034	 	go	1
SPC_320	2015_Apr_16_0931	LL-Jerry	NS	cueing_effect	343	0					1	right	206.087934155	13.1784018047	1.0	913.438264281	 	go	1
SPC_320	2015_Apr_16_0931	LL-Jerry	NS	cueing_effect	344	0					1	left	-199.726797641	9.09439027669	1.0	485.546430573	 	go	1
SPC_320	2015_Apr_16_0931	LL-Jerry	NS	cueing_effect	345	1	sound	left			1	left	-178.059829772	0.649088908298	1.0	462.265973911	 	go	1
SPC_320	2015_Apr_16_0931	LL-Jerry	NS	cueing_effect	346	1	frame	right	200	0	1	right	197.589130207	-16.3903514984	1.0	390.821270645	 	go	1
SPC_320	2015_Apr_16_0931	LL-Jerry	NS	cueing_effect	347	1	frame	right	200	0	0					1329.14750837		nogo	1
SPC_320	2015_Apr_16_0931	LL-Jerry	NS	cueing_effect	348	1	sound	left			1	left	-183.969024031	4.07132677405	1.0	431.295067072	 	go	1
SPC_320	2015_Apr_16_0931	LL-Jerry	NS	cueing_effect	349	1	frame	right	200	0	1	right	217.906688692	-10.5023524177	1.0	576.963787898	 	go	1
SPC_320	2015_Apr_16_0931	LL-Jerry	NS	cueing_effect	350	0					0					1338.33825216		nogo	1
SPC_320	2015_Apr_16_0931	LL-Jerry	NS	cueing_effect	351	1	sound	right			1	right	194.409613156	12.9753130446	1.0	428.299797699	 	go	1
SPC_320	2015_Apr_16_0931	LL-Jerry	NS	cueing_effect	352	1	sound	right			1	right	188.57293008	19.4133436291	1.0	386.421514675	 	go	1
SPC_320	2015_Apr_16_0931	LL-Jerry	NS	cueing_effect	353	1	frame	right	200	0	1	right	180.361049168	-15.39648211	1.0	397.931521758	 	go	1
SPC_320	2015_Apr_16_0931	LL-Jerry	NS	cueing_effect	354	1	sound	left			1	left	-219.505015201	-11.9671396578	1.0	420.624559745	 	go	1
SPC_320	2015_Apr_16_0931	LL-Jerry	NS	cueing_effect	355	1	frame	left	-200	0	1	left	-193.423527293	-7.52263914765	1.0	439.65924345	 	go	1
SPC_320	2015_Apr_16_0931	LL-Jerry	NS	cueing_effect	356	1	sound	left			1	left	-212.357834096	11.7503704601	1.0	349.279850721	 	go	1
SPC_320	2015_Apr_16_0931	LL-Jerry	NS	cueing_effect	357	1	frame	left	-200	0	1	left	-183.603817135	19.2313887904	1.0	520.338794217	 	go	1
SPC_320	2015_Apr_16_0931	LL-Jerry	NS	cueing_effect	358	1	frame	right	200	0	1	right	199.715795977	-6.92921462613	1.0	442.72865355	 	go	1
SPC_320	2015_Apr_16_0931	LL-Jerry	NS	cueing_effect	359	0					1	right	180.107345946	-20.349264692	1.0	512.983309105	 	go	1
